"Time (s)","Linear Acceleration x (m/s^2)","Linear Acceleration y (m/s^2)","Linear Acceleration z (m/s^2)","Absolute acceleration (m/s^2)"
1.411545430E-1,-1.878471375E-1,1.616199017E-1,5.212240219E-1,5.771325850E-1
1.604603770E-1,-3.690462112E-1,-1.340014935E-1,7.882409096E-1,8.806107187E-1
1.797780330E-1,-4.421949387E-2,-2.958998680E-1,-3.326759338E-1,4.474208002E-1
1.990656890E-1,-2.863841057E-1,-6.603622437E-2,-4.563918114E-1,5.428352645E-1
2.183061580E-1,-4.397435188E-1,-5.799984932E-2,4.708981514E-1,6.469029401E-1
2.375940750E-1,-2.277507782E-1,-2.982301712E-1,4.297890663E-1,5.705526212E-1
2.569307930E-1,-1.254305840E-1,-3.018558025E-1,-4.863438606E-1,5.859864398E-1
2.761699080E-1,-2.214713097E-1,-3.771753311E-1,-7.503700256E-1,8.685424266E-1
2.954577730E-1,-1.776313782E-1,-6.939723492E-1,-4.643869400E-1,8.537012112E-1
3.147456890E-1,6.327438354E-2,-8.654954433E-1,-6.939640045E-1,1.111157977E0
3.340823560E-1,8.650779724E-2,-1.009480715E0,-1.255578518E0,1.613385362E0
3.533691790E-1,-2.416934967E-1,-1.091492891E0,-1.045212746E0,1.530438552E0
3.726567830E-1,-6.278991699E-1,-8.995156288E-1,-3.512291908E-1,1.151845336E0
3.918973040E-1,-4.835309982E-1,-7.039258480E-1,2.000522614E-2,8.542330097E-1
4.111852210E-1,-5.646419525E-1,-3.520100117E-1,1.659274101E-1,6.857576017E-1
4.304731370E-1,-3.448176384E-1,-2.363729477E-1,1.378717422E-1,4.402044882E-1
4.498564710E-1,-7.392501831E-2,9.809541702E-2,-8.775339127E-1,8.860888144E-1
4.690489180E-1,4.590888023E-1,4.357616901E-1,-1.744727135E0,1.855996647E0
4.883368350E-1,1.125537395E0,5.410754681E-1,-2.015038967E0,2.370649516E0
5.076724080E-1,1.030001879E0,6.328334808E-1,-1.401189327E0,1.850598178E0
5.269603250E-1,4.026508331E-2,8.759746552E-1,-6.509685516E-1,1.092113972E0
5.462479810E-1,-4.830980301E-1,8.629083633E-1,-2.200307846E-1,1.013118007E0
5.654884500E-1,-5.162868500E-1,7.411811352E-1,7.403945923E-2,9.063020623E-1
5.847763660E-1,-6.214179993E-1,6.524071693E-1,-1.075267792E-2,9.010610770E-1
6.041116790E-1,-4.733502865E-1,3.808591366E-1,-6.431384087E-1,8.847266178E-1
6.233995960E-1,-6.206786633E-1,1.848187447E-1,-1.470537186E0,1.606822823E0
6.426400640E-1,-7.370278835E-1,1.654076576E-1,-2.351090431E0,2.469452573E0
6.619279810E-1,-1.623737812E-1,3.717265129E-1,-1.963698864E0,2.005158117E0
6.812158980E-1,-2.906448841E-1,8.711709976E-1,-1.691804886E0,1.924997955E0
7.005037620E-1,-5.222795010E-1,1.390814066E0,-9.231967926E-1,1.749123198E0
7.198093870E-1,-5.572247505E-1,7.867491245E-1,-1.632114887E0,1.895592945E0
7.390795960E-1,-1.311801910E0,1.042065620E0,-1.216805458E0,2.070589417E0
7.583675120E-1,-1.707292795E0,9.323816299E-1,-2.288818359E-1,1.958716694E0
7.776581890E-1,2.836472988E-1,-1.443297863E-1,1.056811333E0,1.103692471E0
7.969909500E-1,1.813647866E0,2.770960331E-1,1.325786591E0,2.263583636E0
8.162177730E-1,1.036667824E-2,1.252122641E0,-4.166984558E-1,1.319680332E0
8.355190750E-1,-4.049616814E0,4.241666794E-1,4.768164635E0,6.270144152E0
8.548546480E-1,-6.778845787E0,-1.051758766E0,1.076935482E1,1.276863148E1
8.741291270E-1,-3.935293198E0,-2.829558849E0,8.236789703E0,9.557072797E0
8.934304810E-1,-1.141394854E0,-3.410598755E0,4.226583481E0,5.549682333E0
9.126706890E-1,-1.168708801E0,-1.980693340E0,1.996249199E0,3.045330398E0
9.319586060E-1,-1.365990639E0,-1.372418046E0,4.937712669E0,5.303816373E0
9.512941790E-1,-2.327977896E0,-8.791057467E-1,3.607645988E0,4.382626789E0
9.705820960E-1,-1.970314264E0,-1.727061272E0,1.252853394E0,2.904224606E0
9.898088660E-1,1.942545414E0,-1.645894885E0,2.598584175E0,3.638006648E0
1.009110221E0,2.327722311E0,-3.344230652E-1,1.994849205E0,3.083756361E0
1.028445793E0,-2.280970573E0,1.225081921E0,-2.869345188E0,3.864814909E0
1.047720273E0,-2.412547588E0,5.310062170E-1,-2.767086983E0,3.709329298E0
1.067021575E0,1.277167201E0,-3.034806252E-2,-3.109039783E0,3.361280327E0
1.086261783E0,2.616258860E0,1.600199223E0,-4.505422592E0,5.450163365E0
1.105536262E0,1.336711884E0,2.600521564E0,-2.865223885E0,4.093778081E0
1.124885221E0,-6.488888264E-1,1.340351224E0,-5.677393913E0,5.869446291E0
1.144173189E0,-1.123931408E0,1.531633854E0,-1.161756706E1,1.177187277E1
1.163399960E0,2.856895447E0,-7.917039394E-1,-9.747084618E0,1.018794902E1
1.182701314E0,1.319948316E0,7.358301878E-1,-1.820979595E0,2.366363520E0
1.202037981E0,7.215068340E-1,-5.125786662E-1,-5.587491989E-1,1.046665977E0
1.221314231E0,2.513839722E0,-3.529137373E0,-1.911385059E0,4.735778034E0
1.240612668E0,7.826107740E-1,-2.592045784E0,-2.674617767E-1,2.720793409E0
1.259852877E0,5.262196541E0,-3.439462185E0,-5.031499863E-1,6.306645104E0
1.279236054E0,3.673531532E0,-2.661182165E0,4.692446709E0,6.526544304E0
1.298477460E0,2.537755251E0,3.928744793E-1,3.277093887E0,4.163399622E0
1.317763971E0,5.530973077E-1,4.642510414E0,8.523124695E0,9.721238303E0
1.336991054E0,-9.757955670E-1,5.078189850E0,1.287712765E1,1.387662083E1
1.356292356E0,-1.820299029E-1,4.102569103E0,1.313382149E1,1.376086752E1
1.375627929E0,3.071134806E0,2.743310690E0,1.281439400E1,1.345980372E1
1.394902148E0,5.670718193E0,6.866211444E-2,5.810013771E0,8.118991275E0
1.414156054E0,4.021033287E0,-1.337851167E0,3.896820068E0,5.757061845E0
1.433443971E0,-1.194096804E-1,-9.276390076E-2,3.726718903E0,3.729785194E0
1.452721575E0,-3.614530087E0,1.230635166E0,1.088014603E0,3.970272841E0
1.472102825E0,-3.583920956E0,1.134343624E0,-6.432995796E0,7.450816048E0
1.491356210E0,1.338822246E-1,2.111152887E0,-1.405995369E1,1.421819921E1
1.510582096E0,8.949460983E-1,2.925133705E0,-1.592390442E1,1.621505682E1
1.529883450E0,3.073418140E-2,1.866150737E0,-1.082406616E1,1.098380041E1
1.549218971E0,-2.425670385E0,1.598469615E0,-3.672387600E0,4.682457967E0
1.568506887E0,-3.503005981E0,2.414475918E0,-2.870652676E0,5.132386545E0
1.587795846E0,-1.639297009E0,2.802646637E0,-9.571594238E0,1.010730128E1
1.607035012E0,1.255388618E0,2.952675581E0,-1.490548134E1,1.524689042E1
1.626313085E0,2.093297243E-1,2.190896273E0,-1.248469543E1,1.267720259E1
1.645658450E0,-9.653713107E-1,1.541021466E0,-6.258961201E0,6.517766814E0
1.664946366E0,-1.648638010E0,4.358661175E-1,-4.865135670E0,5.155340110E0
1.684186575E0,-2.059592247E0,-1.306183934E-1,-6.477866173E0,6.798656598E0
1.703474491E0,-2.090549469E0,-1.279179335E0,-5.707750797E0,6.211691880E0
1.722811158E0,-3.632580757E0,-2.473780632E0,-9.181251526E-1,4.489787007E0
1.742084231E0,-2.514883995E0,-1.651168108E0,1.486670494E0,3.355769180E0
1.761386939E0,-1.265107632E0,-7.494947910E-1,7.009719849E0,7.162290982E0
1.780626054E0,-3.118639469E0,1.870638609E0,1.661170197E1,1.700511226E1
1.799903710E0,-1.710826516E0,4.969027519E0,8.691378593E0,1.015668370E1
1.819249491E0,1.038946867E0,-8.424379230E-1,1.207999992E1,1.215382699E1
1.838537408E0,-4.282581329E0,-9.269973755E0,2.394035721E1,2.602717079E1
1.857764179E0,-2.849661827E0,-7.407176495E0,2.510113907E1,2.632591914E1
1.877065533E0,5.186863422E0,4.569395781E-1,1.958340836E1,2.026381575E1
1.896402148E0,1.108544636E1,5.311787605E0,1.098698139E1,1.648684229E1
1.915675273E0,8.162983894E0,7.630158424E0,2.544869423E0,1.145992949E1
1.934978033E0,4.071140766E0,6.084304810E0,-3.938942909E0,8.313135593E0
1.954217096E0,3.644669056E-1,2.349217415E0,-4.711423874E0,5.277231614E0
1.973494752E0,-3.400127888E0,-5.543889403E-1,-6.115322113E0,7.018930210E0
1.992840273E0,-4.784337044E0,-1.125476956E0,-9.008129120E0,1.026172352E1
2.012080741E0,-2.559688091E0,-1.639018536E0,-8.718671799E0,9.233288841E0
2.031355221E0,-1.684340000E0,-9.550817609E-1,-5.107388496E0,5.462105790E0
2.050656523E0,-3.198181629E0,1.267331600E0,-4.237166882E0,5.457845573E0
2.069992096E0,-1.647755146E0,1.281408548E0,-8.522314072E0,8.774220309E0
2.089267721E0,-3.247207701E-1,2.602662802E0,-1.191061401E1,1.219598391E1
2.108568971E0,6.240530610E-1,1.442851782E0,-1.409617043E1,1.418355682E1
2.127808085E0,7.520576715E-1,6.340157986E-1,-1.166177464E1,1.170318565E1
2.147085741E0,2.556855381E-1,-8.031415939E-2,-6.622360706E0,6.627781438E0
2.166431575E0,5.578880310E-1,-6.809383631E-1,-4.662936687E0,4.745302378E0
2.185719439E0,2.052486658E0,-6.898697615E-1,-5.690159798E0,6.088229652E0
2.204946210E0,2.828839302E0,-8.714153767E-1,-7.148227692E0,7.736850502E0
2.224247564E0,1.348490477E0,-1.655708313E0,-6.028184891E0,6.395217718E0
2.243553398E0,-7.153232098E-1,-1.424093008E0,-4.305120468E0,4.590619831E0
2.262857512E0,4.331952333E-1,-1.193907499E0,-3.303101063E0,3.538862792E0
2.282160012E0,3.677973747E0,-1.160510659E0,-3.097937584E0,4.946867003E0
2.301399075E0,1.544520140E0,-1.884773135E0,1.963319778E-1,2.444679627E0
2.320676731E0,-2.018068314E0,-3.679126740E0,9.835818291E0,1.069354454E1
2.339992825E0,6.959464550E-1,-3.319992065E0,1.561121464E1,1.597550347E1
2.359310168E0,-1.001398802E0,-3.009812534E-1,1.993369293E1,1.996109975E1
2.378537200E0,-2.212062359E0,-2.674535036E0,2.729191971E1,2.751172912E1
2.397838554E0,-2.869863987E0,-6.080181599E0,3.022496796E1,3.096374356E1
2.417126418E0,-3.745425701E0,-4.361812592E0,2.800176811E1,2.858588183E1
2.436400846E0,2.398300171E-2,-1.512438536E0,2.360470963E1,2.365312584E1
2.455749856E0,1.262954712E0,8.835899830E-2,1.525032806E1,1.530278955E1
2.474990064E0,3.624755383E0,1.511182070E0,4.649216652E0,6.085863809E0
2.494267564E0,5.033326149E0,2.842456341E0,-3.677230358E0,6.850981921E0
2.513614648E0,8.169674873E-1,1.390048862E0,-5.824621677E0,6.043665229E0
2.532901158E0,-4.043789387E0,-1.082496643E0,-7.526767254E0,8.612563897E0
2.552128189E0,-5.521362305E0,-1.758465648E0,-1.158133888E1,1.295009859E1
2.571429491E0,-4.518610477E0,2.209581435E-1,-1.508090591E1,1.574485269E1
2.590766210E0,-4.218533993E0,2.087959528E0,-1.535086060E1,1.605629238E1
2.610009804E0,-3.092612028E0,9.554532766E-1,-1.388341808E1,1.425575104E1
2.629341939E0,1.171603322E0,-1.599999070E0,-1.659719849E1,1.671525199E1
2.648581054E0,2.847534657E0,-2.649644852E0,-1.736614990E1,1.779641070E1
2.667873450E0,1.360629797E0,-2.357588291E0,-1.280238152E1,1.308856403E1
2.687204231E0,1.644695997E-1,-2.025188923E0,-9.886617661E0,1.009324770E1
2.706492408E0,5.135552883E-1,-1.258204341E0,-1.154637337E1,1.162607221E1
2.725719179E0,2.176806211E0,-1.392762542E0,-1.446442413E1,1.469346243E1
2.745020481E0,2.243890285E0,-1.426849365E0,-1.409227562E1,1.434096143E1
2.764356002E0,1.424904823E0,-7.068718076E-1,-1.041152573E1,1.053232593E1
2.783631575E0,1.129984379E0,-3.386524320E-1,-6.512633324E0,6.618605818E0
2.802932981E0,1.335939288E0,-5.613265038E-1,-4.302891731E0,4.540341229E0
2.822171991E0,1.506861687E0,-5.887905359E-1,-1.434881210E0,2.162450121E0
2.841555325E0,-1.519854069E-1,-5.874716043E-1,1.073572159E0,1.233198942E0
2.860796523E0,-7.225639224E-1,-3.111412525E-1,3.557186127E0,3.643141589E0
2.880083346E0,-1.047953367E0,-5.736384392E-1,9.102820396E0,9.180882664E0
2.899310116E0,-2.499723911E0,-2.401838541E0,1.224303341E1,1.272435912E1
2.918611418E0,-2.397766352E0,-7.937622070E0,1.316640377E1,1.555986233E1
2.937946991E0,-4.000924587E0,-1.857789040E1,1.907984161E1,2.692927339E1
2.957221471E0,-2.398609161E0,-1.821038055E1,3.194241333E1,3.684683236E1
2.976522773E0,5.796210289E0,-1.408966446E1,3.359149170E1,3.688499712E1
2.995762929E0,6.983469963E0,-6.432475567E0,2.291659927E1,2.480556625E1
3.015037408E0,2.728663683E0,2.894139290E-1,1.176630306E1,1.208202192E1
3.034386418E0,1.173583418E-2,2.830509186E0,1.134713173E0,3.049507168E0
3.053675116E0,-2.951682091E0,4.329758167E0,-7.977197647E0,9.544365629E0
3.072901054E0,-3.860383511E0,5.147907257E0,-1.279532433E1,1.432214490E1
3.092202356E0,-2.807739258E0,5.431309223E0,-1.544918251E1,1.661504619E1
3.111508189E0,4.441201687E-2,6.527463436E0,-1.560423660E1,1.691454851E1
3.130812356E0,8.141295910E-1,7.853287220E0,-1.163377571E1,1.405993117E1
3.150113658E0,-1.110480309E0,6.458663940E0,-8.885719299E0,1.104099243E1
3.169353866E0,-3.694895804E-1,3.296899319E0,-1.074381733E1,1.124436208E1
3.188646262E0,4.168170929E0,1.332044959E0,-1.314067268E1,1.385010004E1
3.207947564E0,3.031550407E0,1.015960693E0,-9.869065285E0,1.037405049E1
3.227266054E0,-1.766814947E0,1.424865365E0,-6.602841377E0,6.982076383E0
3.246491991E0,-8.798650503E-1,6.045205593E-1,-6.157240868E0,6.249097752E0
3.265793293E0,2.745356798E0,3.260877132E-1,-2.400052547E0,3.661088551E0
3.285128866E0,2.842751741E0,8.660957813E-1,3.489496231E0,4.583442299E0
3.304404127E0,-1.836115837E0,1.797039270E0,5.813230515E0,6.355652643E0
3.323704596E0,-4.198215008E0,2.961355686E0,2.551649094E0,5.736335925E0
3.342944804E0,-1.178252101E0,2.171965122E0,1.108124733E0,2.708071441E0
3.362266939E0,9.648035765E-1,-4.012577534E-1,4.553032875E0,4.671398301E0
3.381569127E0,1.263520479E0,-3.402657747E0,7.290892601E0,8.144426233E0
3.400856106E0,1.326118112E0,-7.051660538E0,6.957312584E0,9.994433650E0
3.420082877E0,-2.427609921E0,-8.499059677E0,9.396411896E0,1.290038224E1
3.439384179E0,-3.013570309E0,-8.232446671E0,1.087401772E1,1.396778599E1
3.458719752E0,9.667503834E-1,-8.219697952E0,8.768585205E0,1.205761698E1
3.477994179E0,1.368056536E0,-5.334738731E0,1.203384781E1,1.323421736E1
3.497295533E0,3.021146059E-1,-4.037150383E0,1.630838776E1,1.680337370E1
3.516535689E0,-3.201656938E-1,-3.916649818E0,1.490677071E1,1.541604569E1
3.535859179E0,-1.075342655E0,-1.849020839E0,1.183609009E1,1.202781229E1
3.555114387E0,1.103208184E0,4.790592194E-1,6.756742477E0,6.862953806E0
3.574448085E0,3.418010473E0,1.472152948E0,3.358936310E-1,3.736690304E0
3.593673814E0,2.878787994E0,9.595092535E-1,-3.612936497E0,4.718197585E0
3.612975116E0,3.846741617E-1,-5.446612835E-2,-5.019603729E0,5.034616407E0
3.632311523E0,-1.203639984E0,-7.824528217E-1,-6.307995796E0,6.469296144E0
3.651553918E0,-1.342615008E0,-1.131302714E0,-5.543124676E0,5.814524234E0
3.670887252E0,-7.273702621E-1,-5.817210078E-1,-5.546501637E0,5.624157469E0
3.690126627E0,-5.397506952E-1,1.328461468E-1,-8.647662163E0,8.665508629E0
3.709448710E0,-6.350939274E-1,4.579834342E-1,-1.181274033E1,1.183866239E1
3.728750012E0,-6.313881278E-1,2.026137859E-1,-1.327396107E1,1.329051337E1
3.748038762E0,4.567146897E-1,-3.264889121E-1,-1.465435219E1,1.466510216E1
3.767278137E0,1.159295440E-1,-7.767066956E-1,-1.364007759E1,1.366266554E1
3.786566002E0,-1.536638141E0,-1.444464922E0,-9.547898293E0,9.778041598E0
3.805871783E0,-2.213155270E0,-1.468114018E0,-7.223246098E0,7.696018399E0
3.825189127E0,-1.638877630E0,-5.428812504E-1,-7.167207718E0,7.372211772E0
3.844429596E0,-1.484879851E-1,-1.629676670E-1,-9.345682144E0,9.348282296E0
3.863717512E0,5.121598244E-1,-2.717989683E-1,-1.113104439E1,1.114613527E1
3.883005377E0,8.706212044E-3,-8.111649752E-1,-1.060122395E1,1.063221583E1
3.902293241E0,-6.868062615E-1,-1.318984151E0,-7.804237843E0,7.944655457E0
3.921628502E0,-7.022255659E-1,-1.940554976E0,-6.009438515E0,6.353914197E0
3.940855585E0,1.158197403E0,-3.275504351E0,-3.936110973E0,5.250078054E0
3.960156887E0,6.607461572E-1,-2.849495411E0,-8.689889908E-1,3.051450712E0
3.979493554E0,-1.932796955E0,-8.035854101E-1,5.707676888E0,6.079393805E0
3.998766627E0,-4.389987946E0,1.543888927E0,1.244211006E1,1.328388836E1
4.018020481E0,-7.153639793E0,4.505840302E0,1.043035412E1,1.342644578E1
4.037308346E0,-1.300599337E0,1.620434880E0,9.250240326E0,9.480733828E0
4.056630481E0,8.802740097E0,-4.694857597E0,2.130576324E1,2.352584682E1
4.075931783E0,1.132502556E1,-1.071000767E1,3.418772888E1,3.757341180E1
4.095219648E0,6.830558777E0,-1.007051086E1,3.107902908E1,3.337630553E1
4.114446418E0,6.344111919E0,-4.517498016E0,1.795549393E1,1.957179876E1
4.133747721E0,4.233909607E0,-5.553722382E-1,5.623497009E0,7.061030201E0
4.153083033E0,-2.567508698E0,1.735207796E0,-1.291853905E0,3.357370030E0
4.172357721E0,-6.802833080E0,2.953375816E0,-4.047297478E0,8.448762247E0
4.191611366E0,-7.554089546E0,5.711874008E0,-6.528462410E0,1.150263426E1
4.210899231E0,-7.098617077E0,8.335920334E0,-8.647545815E0,1.395198842E1
4.230176679E0,-4.401732445E0,9.678165436E0,-1.041099262E1,1.488055450E1
4.249522408E0,-6.818015575E-1,8.408002853E0,-1.231085682E1,1.492369126E1
4.268811627E0,1.529111505E0,6.393410206E0,-1.224427986E1,1.389734742E1
4.288037304E0,1.874713778E0,4.001577854E0,-1.085149384E1,1.171674424E1
4.307338606E0,-7.137877941E-1,2.928705215E0,-6.145133972E0,6.844667909E0
4.326675273E0,-3.952684641E0,2.356457949E0,-4.898281574E0,6.720846101E0
4.345903866E0,-4.830785751E0,1.920643091E0,-7.638418198E0,9.239631671E0
4.365202200E0,-6.836590767E-1,7.229558229E-1,-1.371585083E1,1.375189510E1
4.384490064E0,7.582274079E-1,-1.254960299E0,-1.219207001E1,1.227991878E1
4.403812148E0,-2.405405521E0,-2.004685640E0,-2.120389462E0,3.781638760E0
4.423065846E0,-5.541696548E0,-1.640670538E0,3.042776108E0,6.531514900E0
4.442353710E0,-2.064908504E0,-3.431642532E0,-1.432689667E0,4.253541734E0
4.461628137E0,2.737742424E0,-5.282690525E0,-3.873312473E0,7.099619869E0
4.480929439E0,2.439864635E0,-7.414923668E0,6.758451462E-1,7.835228082E0
4.500264960E0,-1.350401878E0,-9.538507462E0,6.712281227E0,1.174144067E1
4.519540533E0,-3.026963711E0,-1.038952160E1,8.115111351E0,1.352625967E1
4.538793033E0,-3.693189621E0,-7.742489815E0,6.590291977E0,1.081747413E1
4.558080898E0,-3.908699989E0,-4.968908310E0,5.492311478E0,8.374572871E0
4.577404179E0,-4.942308903E0,-5.582816124E0,3.391775131E0,8.191360797E0
4.596704335E0,-5.872737408E0,-7.074044228E0,4.180038452E0,1.009969642E1
4.615944543E0,-5.173691750E0,-8.396068573E0,1.328325558E1,1.654406034E1
4.635218971E0,-4.663127899E0,-8.916000366E0,2.114053345E1,2.341285926E1
4.654520273E0,-6.082314491E0,-8.445053101E0,2.129858017E1,2.370533671E1
4.673856887E0,-5.771301270E0,-5.391393185E0,1.782298088E1,1.949445271E1
4.693131366E0,-3.788516521E0,1.692892075E0,1.203437710E1,1.272968865E1
4.712383866E0,1.205203891E0,3.661953688E0,-2.777622223E0,4.751589886E0
4.731671783E0,6.548733234E0,-1.396435261E0,-1.977611160E1,2.087894941E1
4.750993866E0,6.303345680E0,-5.350444317E-1,-1.126217842E1,1.291724050E1
4.770295168E0,4.752124786E0,2.368542194E0,1.198250771E0,5.443205583E0
4.789583085E0,5.536318779E0,1.008382201E0,-4.673573494E0,7.315049521E0
4.808809804E0,6.530732632E0,-1.525609016E0,-1.382087135E1,1.536211042E1
4.828111106E0,5.921381950E0,-2.921526670E0,-1.466158867E1,1.607980922E1
4.847446627E0,2.726424694E0,-4.288242817E0,-7.698239803E0,9.224170106E0
4.866721939E0,-5.205817819E-1,-5.180606365E0,-3.821050644E0,6.458336916E0
4.885974700E0,-2.141538143E0,-5.374016285E0,-9.028639793E0,1.072299273E1
4.905262564E0,-2.726681232E0,-4.692665577E0,-1.536793137E1,1.629813533E1
4.924584700E0,-1.320930719E0,-3.575922966E0,-1.304748631E1,1.359297546E1
4.943886002E0,1.494870663E0,-3.365499735E0,-5.863980770E0,6.924413133E0
4.963173606E0,4.157217503E0,-3.887510300E0,-3.144805431E0,6.502691358E0
4.982414075E0,4.035190582E0,-4.510177135E0,-4.975342274E0,7.834442646E0
5.001701939E0,2.786397457E0,-4.956361771E0,-6.306209564E0,8.491043037E0
5.020993085E0,4.059161186E0,-5.592479706E0,-6.732526779E0,9.647773610E0
5.040311939E0,6.864007473E0,-7.746686935E0,-6.494682789E0,1.221911051E1
5.059565533E0,7.034738064E0,-1.019750214E1,-6.371396065E0,1.393094675E1
5.078853398E0,2.963473320E0,-9.327057838E0,-6.838646889E0,1.193914877E1
5.098176627E0,-8.705695868E-1,-5.931586266E0,-3.088293076E0,6.743823927E0
5.117476783E0,-5.440828800E0,2.283476830E0,5.226641655E0,7.882554627E0
5.136764700E0,-1.641545296E1,1.248078346E1,1.733663559E1,2.694060105E1
5.155991418E0,-2.876724052E1,1.898943138E1,3.679913712E1,5.042151450E1
5.175292721E0,-2.328496933E1,1.286189365E1,3.474330521E1,4.375746064E1
5.194598554E0,9.780005455E0,-3.459751606E-2,7.702445030E0,1.244899045E1
5.213855064E0,1.956949234E1,-9.264057159E0,7.363252640E0,2.286930858E1
5.233156366E0,4.002046585E0,-6.313805580E0,2.145338440E1,2.271845549E1
5.252444179E0,-4.691756248E0,-2.397196770E0,1.358767223E1,1.457339925E1
5.271767408E0,-6.967216015E0,1.794145346E0,-2.555391312E0,7.634859611E0
5.291067564E0,-2.843021631E0,4.488150597E0,-1.395617962E1,1.493322528E1
5.310355168E0,8.317775726E-1,5.496081352E0,-1.807800293E1,1.891330098E1
5.329582252E0,1.223274469E0,6.787043095E0,-1.168946457E1,1.357217508E1
5.348883554E0,-2.110194206E0,5.678003311E0,-3.809778690E0,7.155910484E0
5.368189335E0,1.045530558E0,2.274388790E0,-4.562932491E0,5.204453039E0
5.387493502E0,8.521218300E0,2.767938375E-1,-1.120124149E1,1.407677474E1
5.406747148E0,5.229915619E0,7.664405107E-1,-8.785867691E0,1.025333699E1
5.426035012E0,-1.171107769E0,1.451250315E0,-3.516674042E0,3.980529764E0
5.445358450E0,-3.184354067E0,1.057062745E0,-5.242574215E0,6.224313365E0
5.464659491E0,1.738239527E0,3.947062492E-1,-1.101840782E1,1.116165671E1
5.483947356E0,4.727311134E0,3.312345743E-1,-1.206563759E1,1.296290081E1
5.503173033E0,1.831080914E0,-3.550559282E-1,-7.681984901E0,7.905176409E0
5.522474335E0,-2.155336380E0,-7.949910164E-1,-3.934612751E0,4.556167592E0
5.541779856E0,2.073255181E-1,-1.751533985E0,-4.657938957E0,4.980687754E0
5.561085377E0,4.427206039E0,-3.125265598E0,-4.144408703E0,6.822284212E0
5.580337929E0,1.330106378E0,-3.436858177E0,1.361454964E0,3.928706750E0
5.599625793E0,-6.612480640E0,-1.689185977E0,8.151613235E0,1.063141796E1
5.618918189E0,-9.465230942E0,1.167651772E0,8.692064285E0,1.290371997E1
5.638249179E0,-3.397760630E0,2.660747290E0,1.109330463E1,1.190318282E1
5.657536835E0,-1.572205067E0,3.313806057E0,1.553089809E1,1.595813069E1
5.676763814E0,-3.923234463E0,3.095647097E0,1.127268124E1,1.233078026E1
5.696065116E0,2.113520861E0,2.276682377E0,7.018630981E0,7.675378422E0
5.715370950E0,7.013590813E0,7.935113907E-1,1.099404812E1,1.306480809E1
5.734675116E0,8.313050270E0,-2.230692387E0,1.875351524E1,2.063436763E1
5.753928710E0,8.757851124E-1,-3.575608015E0,2.230861282E1,2.261031133E1
5.773216575E0,-3.379738331E0,-1.264582872E0,1.220461369E1,1.272691621E1
5.792539804E0,-7.341134548E-1,2.971774936E-1,-1.247471809E0,1.477641006E0
5.811792304E0,5.616707206E-1,1.155948162E0,-9.183112144E0,9.272606905E0
5.831127616E0,-2.555637598E0,5.634192228E-1,-1.135240459E1,1.165014227E1
5.850354596E0,-6.469551086E0,1.185565472E0,-9.375037193E0,1.145216046E1
5.869655898E0,-1.631512761E0,1.414717793E0,-6.350831985E0,6.707930175E0
5.888961731E0,4.280312061E0,2.671536446E0,-5.403943062E0,7.393292835E0
5.908265846E0,1.831995010E0,2.390907049E0,-1.118925190E1,1.158757957E1
5.927519491E0,-1.518506408E0,1.412849665E0,-1.494416046E1,1.508740991E1
5.946807356E0,-1.483202815E0,5.264405608E-1,-1.419858170E1,1.428554348E1
5.966129439E0,-2.957525849E-1,3.544679284E-1,-1.136414337E1,1.137351624E1
5.985430741E0,1.032047153E0,4.140112996E-1,-8.960716248E0,9.029449726E0
6.004718606E0,8.299008012E-1,6.464698911E-1,-8.150804520E0,8.218410611E0
6.023958814E0,1.873624325E-2,1.841670275E-1,-8.187447548E0,8.189540029E0
6.043246679E0,-5.211818218E-1,-1.383848190E-1,-8.003002167E0,8.021148579E0
6.062552460E0,6.819679737E-1,-4.049828649E-1,-7.575465202E0,7.616873668E0
6.081856627E0,2.018747568E0,-8.467392921E-1,-5.979156971E0,6.367309263E0
6.101110221E0,1.518575191E0,-1.625053883E0,-2.680728436E0,3.483270830E0
6.120398085E0,-3.740088642E-1,-3.016787767E0,-1.242325783E0,3.283940379E0
6.139720221E0,-1.551507115E0,-3.712318182E0,-3.460354328E0,5.306838295E0
6.159021471E0,9.842211604E-1,-4.106359959E0,-3.049849033E0,5.208883040E0
6.178309335E0,2.652957916E0,-2.990274668E0,5.911694527E0,7.136389877E0
6.197536106E0,2.982311249E0,-3.685499907E0,1.332782269E1,1.414595163E1
6.216837408E0,3.215003490E0,-5.908067703E0,1.765318298E1,1.889117204E1
6.236142929E0,1.827847123E0,-7.681092262E0,2.589059639E1,2.706775175E1
6.255447096E0,2.971477509E0,-6.411824226E0,3.843353271E1,3.907784034E1
6.274701002E0,5.067888260E0,-4.611507654E-1,3.476380920E1,3.513429353E1
6.293988866E0,3.186170101E0,4.516898155E0,1.790114212E1,1.873512578E1
6.313281210E0,1.604266047E0,4.746747017E0,1.512703896E0,5.233884778E0
6.332613346E0,-3.800086975E0,2.401609421E0,6.142721176E-1,4.537148781E0
6.351900116E0,-5.639968872E0,2.474257231E0,4.121164322E0,7.410478601E0
6.371126887E0,-4.518961430E0,5.667726040E0,-5.642290115E-1,7.270659203E0
6.390428189E0,-4.996765137E0,6.291313171E0,-8.608051300E0,1.177483887E1
6.409733918E0,-1.474648237E0,5.400914192E0,-1.470147514E1,1.573142819E1
6.428990429E0,-9.342825413E-1,5.177016735E0,-1.654302597E1,1.735932298E1
6.448291731E0,-6.542124152E-1,4.058273792E0,-1.546821404E1,1.600509998E1
6.467579596E0,-4.285932183E-1,2.527005911E0,-1.208719730E1,1.235596171E1
6.486899543E0,-2.393006802E0,1.319122314E-2,-6.550873280E0,6.974281059E0
6.506200950E0,-2.195211172E0,-7.465622425E-1,-8.225574493E0,8.546132635E0
6.525526679E0,-7.493358254E-1,1.839895248E-1,-1.253749084E1,1.256121145E1
6.544717616E0,-8.969934583E-1,9.401891232E-1,-1.156588078E1,1.163864902E1
6.564018918E0,-3.254885197E0,3.481849432E-1,-5.713387489E0,6.584702499E0
6.583352304E0,-4.438335419E0,4.712336063E-1,-3.793153763E0,5.857379778E0
6.602626731E0,-4.635248661E0,1.126549244E0,-7.360058784E0,8.770696019E0
6.621882460E0,-6.419239998E0,1.376493931E0,-1.203928566E1,1.371297841E1
6.641170325E0,-7.326954365E0,8.817468882E-1,-1.270220661E1,1.469039791E1
6.660491471E0,-3.911781907E-1,3.229898214E-1,-1.017328262E1,1.018592274E1
6.679791575E0,8.600810051E0,-1.828158736E0,-8.450776100E0,1.219556127E1
6.699079491E0,5.997271538E0,-4.433918953E0,-1.194291115E0,7.553359150E0
6.718308346E0,8.811253548E0,-9.026599884E0,1.927851105E1,2.303863457E1
6.737609648E0,7.745944023E0,-1.192522621E1,3.246644592E1,3.544405140E1
6.756943085E0,3.652677298E0,-1.416492462E1,3.194158363E1,3.513192147E1
6.776217460E0,5.528819084E0,-1.119146729E1,2.851851845E1,3.113073521E1
6.795473189E0,7.701724529E0,-5.324231148E0,1.940348625E1,2.154435603E1
6.814761054E0,8.286615372E0,-2.955989122E0,1.218657303E1,1.503058310E1
6.834081054E0,1.000264549E1,-1.796913862E0,8.011589050E-1,1.019429605E1
6.853382304E0,7.886848450E0,-2.672950983E0,1.663208961E0,8.491955574E0
6.872670168E0,-2.570355177E0,-6.409240246E0,1.198168468E1,1.382916679E1
6.891899075E0,-1.093368530E1,-3.460412264E0,1.203317738E1,1.662279414E1
6.911200377E0,-7.166108131E0,1.521840453E0,6.924724579E0,1.008071994E1
6.930533814E0,-1.278430104E0,5.000208378E0,-2.398424149E-1,5.166622856E0
6.949808189E0,-2.465485811E0,8.355369568E0,-1.023035049E0,8.771397928E0
6.969063918E0,5.784561634E-1,9.797397614E0,-6.444978237E0,1.174143756E1
6.988351783E0,4.432849407E0,1.125292778E1,-2.121293640E1,2.441858326E1
7.007671731E0,4.023314476E0,1.200525379E1,-3.033737946E1,3.287354210E1
7.026974179E0,-3.657493353E0,1.002177429E1,-1.924639130E1,2.200538106E1
7.046260898E0,-1.517336464E1,4.086406708E0,-2.910327911E0,1.598123033E1
7.065489804E0,-2.018295288E1,2.499033928E0,2.348731995E0,2.047225683E1
7.084791106E0,-1.519166183E1,4.342787266E0,-4.321071148E0,1.638041655E1
7.104124439E0,-9.123998642E0,7.045789719E0,-7.311950207E0,1.365119481E1
7.123354596E0,-6.590937138E0,7.791366577E0,-6.306054592E0,1.199633986E1
7.142654648E0,-5.929118156E0,7.540555954E0,-6.304377079E0,1.147865831E1
7.161942512E0,-2.671484470E0,6.866299629E0,-6.334396362E0,9.716351020E0
7.181262512E0,-9.964275360E-1,6.833964348E0,-5.018308163E0,8.536940515E0
7.200563762E0,-1.358239174E0,5.600275517E0,-4.498469353E0,7.310548956E0
7.219852721E0,-1.055907488E0,4.311554909E0,-4.264076233E0,6.155224811E0
7.239080481E0,6.635961533E-1,2.966977596E0,-1.905047894E0,3.587829900E0
7.258383137E0,3.156838417E0,6.914291382E-1,7.128322124E0,7.826664638E0
7.277715221E0,2.697539330E-1,-3.112576962E0,1.215118599E1,1.254640281E1
7.296989596E0,-4.581345081E0,-6.086827278E0,7.550961971E0,1.072637943E1
7.316245377E0,-1.338073015E0,-7.639066696E0,4.785915375E0,9.113219264E0
7.335533189E0,4.903885841E0,-9.741481781E0,1.120775223E1,1.563835905E1
7.354856418E0,9.863241196E0,-1.723454857E1,1.242553997E1,2.342450074E1
7.374156627E0,1.218878937E1,-2.195293999E1,-3.445057392E0,2.534495178E1
7.393444491E0,4.317344189E0,-1.176524830E1,-3.959689617E0,1.314304646E1
7.412671210E0,2.917067766E0,-1.208218098E1,7.076951981E0,1.430285394E1
7.431972512E0,-4.195453167E0,-6.587539673E0,9.181674957E0,1.205407239E1
7.451308033E0,-8.707036078E-2,-3.559085131E0,1.163075447E1,1.216343363E1
7.470582460E0,6.250051498E0,-9.622862339E-1,1.001105022E1,1.184104156E1
7.489836054E0,5.621222496E0,2.803480625E-1,8.602699280E0,1.028023211E1
7.509123918E0,4.314253807E0,-1.530501604E0,1.297140217E1,1.375545329E1
7.528447096E0,1.581558585E-2,-1.687337041E0,1.985666466E1,1.992823343E1
7.547748398E0,-5.248178959E0,1.870795727E0,2.667998505E1,2.725554735E1
7.567036262E0,-9.985397339E0,5.021226883E0,2.352369308E1,2.604390554E1
7.586261887E0,-9.521117210E0,7.071133614E0,8.255009651E0,1.444983695E1
7.605644543E0,-6.684120655E0,5.369128704E0,-2.714708328E0,8.993033597E0
7.624898398E0,-7.505218029E0,6.310215592E-1,-7.181272507E-1,7.565857031E0
7.644172825E0,-4.279593468E0,-3.099263430E0,-5.579184532E0,7.684247139E0
7.663426731E0,1.462857246E0,3.211543560E0,-1.320534706E1,1.366876565E1
7.682714596E0,2.920017242E-1,5.319190025E0,-1.231503105E1,1.341786262E1
7.702006679E0,-5.656798363E0,4.506523132E0,-5.751966476E0,9.240846109E0
7.721337981E0,-1.245781326E1,5.307561874E0,-1.892085075E0,1.367286767E1
7.740625585E0,-1.315010834E1,5.303963661E0,-4.802407265E0,1.497065447E1
7.759852564E0,-1.218936920E1,4.019048691E0,-5.322342396E0,1.389463215E1
7.779173293E0,-8.999412537E0,1.840624452E0,1.121980190E0,9.253980977E0
7.798489127E0,-5.258846283E0,1.991181850E0,4.582797050E0,7.254122841E0
7.817719127E0,-6.974679947E0,2.004502773E0,1.085155487E0,7.337694063E0
7.837017408E0,-9.569827080E0,1.455345750E0,-1.376268148E0,9.777204897E0
7.856305273E0,-9.400964737E0,1.024893761E0,-1.244772911E0,9.538239083E0
7.875611054E0,-8.621415138E0,5.901297927E-1,-1.834011674E0,8.834061975E0
7.894928398E0,-9.142943382E0,2.964526415E-1,-2.355067730E0,9.446038422E0
7.914172043E0,-9.213506699E0,-6.361696720E-1,-2.910758018E0,9.683280941E0
7.933443241E0,-8.023259163E0,-2.335155487E0,-2.925128937E0,8.853361963E0
7.952826002E0,-5.663609505E0,-3.278899670E0,-3.170018196E0,7.271634688E0
7.972081158E0,-6.885843277E-1,-5.121352673E0,-5.395173073E0,7.470628759E0
7.991355585E0,2.299270630E0,-8.377799034E0,-6.587447643E0,1.090268905E1
8.010608085E0,3.684772491E0,-9.440583229E0,-1.960494518E0,1.032209760E1
8.029895950E0,5.039221287E0,-6.906476974E0,-1.028027534E0,8.611040355E0
8.049219127E0,2.846324921E0,-4.400346756E0,-5.293327808E0,7.448754018E0
8.068520429E0,-9.588720322E0,3.367413282E-1,-3.896999359E0,1.035584647E1
8.087806939E0,-6.087652206E0,2.654734135E0,7.696123123E0,1.016550214E1
8.107033918E0,7.179059029E0,-1.780500412E-1,2.395257950E1,2.500593240E1
8.126413346E0,7.932140350E0,-2.639768124E0,3.198685265E1,3.306124572E1
8.145670481E0,-3.842823505E-1,-4.470047474E0,2.441614723E1,2.482493188E1
8.164944908E0,3.684755325E0,-4.960664272E0,1.138593102E1,1.295473029E1
8.184198762E0,1.159603691E1,-8.913280487E0,1.513452530E-1,1.462660406E1
8.203486627E0,3.848792553E0,-9.837243080E0,8.333253860E-1,1.059617793E1
8.222808658E0,-4.874867439E0,-9.356355667E0,4.103914261E0,1.132024011E1
8.242111106E0,-7.352636337E0,-6.350399494E0,8.026336670E0,1.260202028E1
8.261397825E0,-5.673094273E0,-2.333159685E0,7.752233505E0,9.885583294E0
8.280624596E0,-2.969546556E0,3.040041924E-1,3.913879395E-1,3.010616186E0
8.299925846E0,-3.238171816E0,2.874370098E0,-6.638115883E0,7.925423815E0
8.319261366E0,-6.149488449E0,4.459479809E0,-6.467785835E0,9.976744056E0
8.338535793E0,-9.989362717E0,6.750612736E0,-1.306886196E0,1.212708091E1
8.357789439E0,-1.139653492E1,9.410923958E0,7.268552780E-1,1.479779769E1
8.377077252E0,-9.791729927E0,1.021443558E1,-5.187921524E-1,1.415916009E1
8.396399387E0,-7.908650398E0,7.770841599E0,-2.681327343E0,1.140711386E1
8.415652981E0,-4.777686596E0,4.691193104E0,-5.663132191E0,8.769529529E0
8.434940846E0,-1.825364947E0,2.949245453E0,-7.635015011E0,8.385908427E0
8.454215221E0,2.694181800E-1,1.951591492E0,-7.806924820E0,8.051668812E0
8.473532043E0,1.051365733E0,1.074793339E0,-7.890274048E0,8.032245961E0
8.492860638E0,1.023180604E0,1.407158136E0,-7.020336151E0,7.232711265E0
8.512135065E0,3.099277973E0,6.868443489E-1,-6.813457966E0,7.516680688E0
8.531389700E0,6.468345165E0,-2.285602093E-1,-7.278020382E0,9.739677080E0
8.550677565E0,7.876232624E0,-1.374394894E0,-1.044164085E1,1.315111651E1
8.569997513E0,6.401937008E0,-2.008001566E0,-6.538358688E0,9.368404458E0
8.589298815E0,4.280895233E0,-2.052071095E0,-8.608179092E-1,4.824734941E0
8.608556940E0,5.909263611E0,-3.706857204E0,-1.288553238E0,7.093698345E0
8.627815534E0,7.876070499E0,-4.946764469E0,-5.747802734E0,1.093344417E1
8.647163450E0,5.928061485E0,-5.158626556E0,-5.410029411E0,9.540532436E0
8.666450221E0,2.039249420E0,-4.673852921E0,2.588748932E-2,5.099422466E0
8.685724648E0,-1.058111548E0,-2.362173557E0,2.771167755E0,3.791943392E0
8.704980325E0,-1.902881622E0,2.543638706E0,-1.811466217E-1,3.181803016E0
8.724268190E0,-2.808764696E0,3.706964970E0,-2.164648056E0,5.129956102E0
8.743558398E0,-1.038776016E1,6.262729645E0,-8.585414886E-1,1.215995219E1
8.762889440E0,-1.742412758E1,1.011128998E1,-9.114723206E-1,2.016604048E1
8.782177252E0,-1.395750427E1,8.665252686E0,-6.364802837E0,1.761843480E1
8.801406159E0,5.233139038E0,-3.312037706E0,-7.881091595E0,1.002331994E1
8.820723242E0,3.948299885E0,-1.736906815E1,1.380704212E1,2.253681460E1
8.840040794E0,-8.340707779E0,-2.195885658E1,3.956260300E1,4.601041561E1
8.859315273E0,-1.004484081E1,-1.468780804E1,3.935221863E1,4.318828131E1
8.878571002E0,1.439899206E0,-1.203263855E1,1.357843685E1,1.819977053E1
8.897858815E0,1.159412479E1,-6.547054291E0,-9.410832405E0,1.630495066E1
8.917178763E0,6.517003059E0,1.439678669E0,-9.589757919E0,1.168364072E1
8.936480065E0,1.158891559E0,3.300849915E0,-7.451705933E-1,3.576858820E0
8.955767929E0,7.345207930E-1,3.365464211E0,6.711715698E0,7.544070371E0
8.974996784E0,2.723306894E0,1.663897991E0,6.805671692E0,7.516789484E0
8.994343607E0,1.700612545E0,1.184688687E0,-8.959178925E-1,2.257928073E0
9.013585898E0,1.136447430E0,1.865059137E0,-1.239989376E1,1.259076342E1
9.032905638E0,4.272937775E-2,2.425843477E0,-1.740892410E1,1.757717784E1
9.052161627E0,-2.085466623E0,2.096809387E0,-1.405689812E1,1.436461504E1
9.071449440E0,-2.680551767E0,6.535762548E-1,-1.013117123E1,1.050015000E1
9.090739648E0,-4.388713837E0,1.068161845E0,-6.122841358E0,7.608611251E0
9.110070690E0,-3.426124096E0,7.739497423E-1,-4.077274799E0,5.381588456E0
9.129359752E0,-1.632424474E0,1.128697395E-1,-3.019382954E0,3.434271780E0
9.148600846E0,-1.829756618E0,6.998221874E-1,-3.984931469E0,4.440432320E0
9.167934023E0,4.814919233E-1,1.421060562E-1,-4.190088749E0,4.220055963E0
9.187222148E0,3.692470789E-1,2.179384470E0,-4.106276035E0,4.663428240E0
9.206497617E0,-5.264945030E-1,4.115036964E0,-2.356462479E-1,4.155268323E0
9.225752200E0,3.667961836E0,7.746251822E-1,1.022893810E1,1.089427202E1
9.245040065E0,7.833884954E-1,-2.526448250E0,2.153793335E1,2.169975141E1
9.264330325E0,-6.108678818E0,-4.041115761E0,2.752300262E1,2.848091022E1
9.283661263E0,-2.855308771E0,-6.009493828E0,2.778534317E1,2.857082602E1
9.302950221E0,4.692136765E0,-7.907488823E0,1.992631531E1,2.194544528E1
9.322178034E0,5.827991962E0,-8.824821472E0,9.092732430E0,1.394706949E1
9.341525950E0,2.570739031E0,-8.644190788E0,7.384403229E0,1.165590600E1
9.360812721E0,1.144010425E0,-7.812090397E0,8.764961243E0,1.179669707E1
9.380087096E0,1.080116391E0,-4.928854942E0,7.397678375E0,8.954658442E0
9.399342825E0,3.590618849E0,-2.500726461E0,3.711071014E-1,4.391343420E0
9.418630690E0,4.439806461E0,-3.775128126E0,-8.431017876E0,1.024917246E1
9.437950638E0,-1.378261566E0,-4.537356853E0,-9.116034508E0,1.027566530E1
9.457251940E0,-7.137262344E0,-3.250063896E0,-4.594969273E0,9.089398864E0
9.476539700E0,-7.648315907E0,-1.860698938E0,-2.794373512E0,8.352691786E0
9.495768607E0,-4.098406792E0,-3.896253109E0,-5.740005493E0,8.057629278E0
9.515115482E0,1.654954910E0,-5.875877857E0,-1.629828072E1,1.740398721E1
9.534403294E0,-3.299427032E-2,-4.212804794E0,-1.828608131E1,1.876511611E1
9.553678815E0,-8.842845917E0,-2.834881067E0,-1.335912323E1,1.626956201E1
9.572933450E0,-1.098504639E1,-3.506304026E0,-1.326752090E1,1.757818315E1
9.592221263E0,-4.508188248E0,-4.683279991E0,-1.328833389E1,1.479312984E1
9.611495690E0,-4.441783428E-1,-4.830739975E0,-1.056157207E1,1.162239854E1
9.630812721E0,-1.869959593E0,-4.414230347E0,-8.070240021E0,9.386743441E0
9.650130377E0,-3.317360163E0,-3.852579594E0,-9.820100784E0,1.105810234E1
9.669359232E0,-2.947334766E0,-3.323933601E0,-1.288541603E1,1.362971985E1
9.688706002E0,-1.992165089E0,-2.935965538E0,-1.270124054E1,1.318749888E1
9.707995013E0,-2.482577324E0,-2.050919533E0,-9.276792526E0,9.819793311E0
9.727268294E0,-1.974766254E0,-1.529334068E0,-5.952889442E0,6.455653117E0
9.746524023E0,-2.173889875E0,1.380780458E0,-2.473769665E0,3.570978608E0
9.765811836E0,1.372756958E-1,5.902398109E0,2.661524773E0,6.476176509E0
9.785133919E0,6.552477360E0,6.858066559E0,1.186528111E1,1.519055404E1
9.804435221E0,7.510829449E0,1.090633869E0,2.301851273E1,2.423744973E1
9.823724127E0,-1.634285736E1,1.323841333E0,3.765266418E1,4.106780567E1
9.842949804E0,-8.072046041E-1,5.183278084E0,2.757772064E1,2.807220381E1
9.862254179E0,2.260883522E1,3.743739367E0,1.669642639E1,2.835393568E1
9.881586575E0,1.200290966E1,-1.476866722E0,2.711565399E1,2.969022848E1
9.900861002E0,2.469098568E0,-4.009104729E0,2.910769844E1,2.948605564E1
9.920114596E0,1.602952480E0,4.981353283E-1,9.585794449E0,9.731652001E0
9.939402409E0,4.300248623E0,4.320219040E0,-1.212419319E1,1.357027971E1
9.958724492E0,2.453601360E0,2.390806198E0,-1.931954956E1,1.962093548E1
9.978025482E0,-1.104469299E0,-2.631335020E0,-1.491031265E1,1.518094858E1
9.997313346E0,-4.105931759E0,-6.200610161E0,-1.169693470E1,1.386089908E1
1.001654038E1,-3.783432484E0,-6.081170559E0,-1.569638062E1,1.725315511E1
1.003584163E1,-1.912320852E0,-5.551706791E0,-2.168211365E1,2.246313584E1
1.005512949E1,-1.507445097E0,-4.824388504E0,-1.962224960E1,2.026276868E1
1.007440387E1,-1.831111312E0,-3.509072781E0,-1.468994141E1,1.521384037E1
1.009370517E1,-1.141669989E0,-2.592208624E0,-1.229188156E1,1.261401238E1
1.011299298E1,4.992371798E-1,-2.359540701E0,-1.034230232E1,1.061978754E1
1.013226741E1,2.063173294E0,-2.804517746E0,-7.638700008E0,8.394744883E0
1.015156866E1,1.670742512E0,-2.981134892E0,-5.015237331E0,6.068867380E0
1.017085652E1,4.945766926E-1,-2.689318419E0,-3.379636765E0,4.347296208E0
1.019013095E1,-8.030092716E-1,-1.720982075E0,-5.748258591E0,6.053848364E0
1.020943220E1,-1.354701281E0,-7.634508014E-1,-7.648748398E0,7.805217789E0
1.022872001E1,-2.126690388E0,7.480356842E-2,-5.469910622E0,5.869269954E0
1.024799444E1,-1.714702129E0,-6.227900088E-2,-1.336960793E0,2.175211766E0
1.026729574E1,-8.902931213E-2,-9.016096592E-2,1.957939148E0,1.962034894E0
1.028658355E1,2.207124233E0,8.225213885E-1,4.693140030E0,5.251047720E0
1.030585798E1,9.183311462E-2,2.611421824E0,7.551600456E0,7.990909004E0
1.032520480E1,-1.081596851E0,2.975430489E0,8.844070435E0,9.393647864E0
1.034444704E1,3.215205193E0,4.548527896E-1,1.078671551E1,1.126488646E1
1.036376704E1,1.177294159E1,-3.722380638E0,1.712013245E1,2.110822603E1
1.038302277E1,1.877726936E1,-1.017822742E1,2.624535370E1,3.383785970E1
1.040235611E1,2.144960403E1,-1.400451279E1,3.282662582E1,4.163891515E1
1.042158501E1,1.885215378E1,-9.287477493E0,2.625393295E1,3.362930174E1
1.044088626E1,1.381330490E1,-1.944990277E0,1.373407555E1,1.957588339E1
1.046017057E1,6.349024773E0,2.002532959E0,7.003148556E0,9.662522627E0
1.047955474E1,6.577035427E0,6.417661309E-1,-2.336947918E0,7.009321247E0
1.049874625E1,3.625060081E0,2.067456841E-1,-1.614801025E1,1.655119450E1
1.051803406E1,-7.866147041E0,3.277078629E0,-1.970901489E1,2.147232595E1
1.053730849E1,-1.731495857E1,5.349661350E0,-1.767568398E1,2.531514311E1
1.055660974E1,-1.907809830E1,3.575858355E0,-1.198247719E1,2.281097011E1
1.057589755E1,-1.789459610E1,-9.851350188E-1,-5.388229847E0,1.871416793E1
1.059517198E1,-1.847872925E1,-2.750074863E0,-1.683676720E0,1.875796134E1
1.061447323E1,-1.767884064E1,-2.563011408E0,-2.913586378E0,1.809970771E1
1.063376109E1,-1.427863693E1,-1.755871296E0,-4.500174522E0,1.507362357E1
1.065303547E1,-6.838821411E0,-1.072407722E0,-4.766891479E0,8.404926591E0
1.067233677E1,-1.748070717E-1,-8.707378507E-1,-1.999740601E0,2.188082354E0
1.069162458E1,7.330265045E-1,-6.791126132E-1,1.729442596E0,1.997371646E0
1.071089901E1,-1.598343372E0,-2.837692201E-1,2.768959999E0,3.209729892E0
1.073020026E1,-8.058552742E-1,-8.156031370E-3,-2.961852074E0,3.069533670E0
1.074948813E1,1.130602837E0,-1.625626445E0,-6.284544945E0,6.589114453E0
1.076876250E1,-4.186778069E-1,-3.450427055E0,-1.761314869E0,3.896532823E0
1.078806380E1,-2.292726994E0,-3.400481939E0,1.566388130E0,4.390153330E0
1.080735162E1,-9.273700714E-1,-2.530438423E0,-1.777390003E0,3.228350831E0
1.082662604E1,7.960019112E-1,-1.121626735E0,-8.740283966E0,8.847837554E0
1.084597286E1,1.921877384E0,1.288019657E0,-1.214171696E1,1.236017387E1
1.086521510E1,3.647779465E0,2.232587337E0,-1.105254269E1,1.185113670E1
1.088453615E1,9.959222794E0,1.335304141E0,-5.267223835E0,1.134516649E1
1.090379078E1,1.127562904E1,-8.936036825E-1,6.218392849E0,1.290762362E1
1.092312422E1,1.277938652E1,-4.775051594E0,1.815679550E1,2.271085777E1
1.094235302E1,2.147283745E1,-6.820586681E0,2.578352547E1,3.424022979E1
1.096167011E1,2.699969673E1,-4.304215431E0,2.478049088E1,3.689962902E1
1.098094214E1,2.795236969E1,-3.349035978E-1,1.882216644E1,3.370046114E1
1.100021792E1,2.590185165E1,7.449643612E-1,1.223280811E1,2.865488589E1
1.101951781E1,9.259358406E0,3.537277222E0,-8.141416550E0,1.282695255E1
1.103880562E1,-4.288458824E0,3.561651468E0,-2.617912674E1,2.676607773E1
1.105808000E1,-1.582494545E1,1.445899725E0,-1.454380989E1,2.154163250E1
1.107738130E1,-1.873052025E1,2.924969196E-1,2.356388330E0,1.888042662E1
1.109666912E1,-1.713413048E1,-1.618074179E0,5.496677399E0,1.806682190E1
1.111594354E1,-2.087002563E1,-4.111335278E0,1.459693909E-2,2.127113680E1
1.113524479E1,-2.490024948E1,-6.217662811E0,-5.751119614E0,2.630127624E1
1.115453260E1,-2.747668457E1,-6.133749008E0,-8.346283913E0,2.936411972E1
1.117380703E1,-2.828529358E1,-5.333011150E0,-5.576331139E0,2.931883882E1
1.119310828E1,-2.703142929E1,-5.034225941E0,-1.683342695E0,2.754769034E1
1.121239615E1,-2.416124344E1,-5.155564785E0,-1.914858818E-1,2.470591426E1
1.123167052E1,-2.083620262E1,-5.166895866E0,-2.717268229E0,2.163856971E1
1.125097177E1,-1.260651779E1,-5.443563938E0,-3.453824520E0,1.415929317E1
1.127025964E1,3.107452393E0,-5.503145218E0,-3.930414677E0,7.442380479E0
1.128953401E1,7.270766258E0,-3.114598036E0,-6.720605850E0,1.037936924E1
1.130883531E1,4.951047897E0,-2.496482849E0,-4.397042274E0,7.076671722E0
1.132812313E1,2.209400177E1,-1.251102448E1,2.008140755E1,3.237180218E1
1.134739750E1,2.634284401E1,-1.473794651E1,4.181245041E1,5.156969563E1
1.136669880E1,7.651312351E0,-1.248492050E1,3.552673340E1,3.842609278E1
1.138598662E1,1.005704498E1,-1.497452259E1,2.461465073E1,3.051657764E1
1.140530656E1,1.579420090E1,-1.732770920E1,2.442552948E1,3.385724115E1
1.142456229E1,1.123894691E1,-1.570837307E1,1.908990479E1,2.715679246E1
1.144389682E1,7.606008530E0,-1.260733032E1,8.984261513E0,1.724856801E1
1.146312448E1,8.527374268E0,-7.237660885E0,4.199378014E0,1.194715961E1
1.148247099E1,9.582703590E0,-2.500776291E0,8.850383759E-2,9.904035697E0
1.150171359E1,3.991777658E0,7.504246235E-1,-2.968774796E0,5.031008823E0
1.152103354E1,-2.478889465E0,6.570112705E-1,-3.407369614E0,4.264589602E0
1.154028927E1,-7.193306923E0,-7.991771698E-1,3.750718117E0,8.151701358E0
1.155967344E1,-7.495642662E0,2.949347496E-1,1.185792351E1,1.403146448E1
1.157885151E1,-9.671244621E0,2.724143744E0,1.274429226E1,1.622870657E1
1.159815276E1,-8.828037262E0,9.823341370E-1,1.462098598E0,9.002052797E0
1.161744057E1,-6.229477882E0,-5.824701786E-1,-1.808820915E1,1.913972248E1
1.163671500E1,-1.148472118E1,1.215531707E0,-2.750876999E1,2.983469062E1
1.165601625E1,-1.106239319E1,4.956803322E-1,-2.518321609E1,2.751030016E1
1.167530406E1,-5.154100418E0,-9.852981567E-2,-2.111839676E1,2.173847145E1
1.169457849E1,8.890490532E-1,1.146886706E0,-1.845298386E1,1.850995328E1
1.171387974E1,2.640242338E0,2.691337585E0,-1.672680664E1,1.714643514E1
1.173316755E1,1.205785513E0,3.222109318E0,-1.414014626E1,1.455265073E1
1.175244198E1,2.379555702E-1,2.635835171E0,-1.176797962E1,1.206190674E1
1.177174323E1,1.676899195E0,1.066328406E0,-1.159152699E1,1.176063540E1
1.179103104E1,2.813255072E0,2.510862350E-1,-1.139558792E1,1.174039490E1
1.181030542E1,1.446650982E0,8.796696663E-1,-6.060553074E0,6.292608469E0
1.182960672E1,2.366307497E0,1.134392977E0,-3.036183834E0,4.013062530E0
1.184889453E1,8.872495651E0,-1.356495142E0,1.457252502E0,9.093120642E0
1.186816891E1,1.281218529E1,-3.592923880E0,5.841293335E0,1.453209901E1
1.188747021E1,8.171146393E0,-2.794026136E0,1.012902451E1,1.331057297E1
1.190675802E1,7.105518341E0,-3.449694395E0,1.688862419E1,1.864442033E1
1.192607792E1,9.169780731E0,-3.231446028E0,2.029793930E1,2.250629827E1
1.194533365E1,6.078483105E0,-1.925001502E0,1.956484795E1,2.057758156E1
1.196466818E1,8.637130260E-1,-2.502396584E0,1.812772942E1,1.832000444E1
1.198389589E1,1.182268262E0,-6.987385273E0,2.028565788E1,2.148788559E1
1.200324380E1,9.145736694E-2,-6.577774048E0,2.345938301E1,2.436427974E1
1.202248495E1,-3.048410892E0,6.517076492E-2,1.899794769E1,1.924107774E1
1.204180495E1,-2.933702469E0,9.440111160E0,4.714986801E0,1.095232438E1
1.206106063E1,-4.647343636E0,1.275085068E1,-5.972294807E0,1.482734977E1
1.208034979E1,-3.098767281E0,1.268097687E1,-3.401525974E0,1.348999303E1
1.209962286E1,-2.731204748E0,1.337001801E1,-4.284790993E0,1.430301698E1
1.211892412E1,-9.799501419E0,1.175675488E1,-9.481049538E0,1.800393884E1
1.213821193E1,-1.272088146E1,8.802765846E0,-1.792900467E1,2.368034460E1
1.215748630E1,-1.989846468E0,5.527616024E0,-2.236195374E1,2.312079157E1
1.217678761E1,-1.457325578E0,2.889234543E0,-2.020256233E1,2.046008306E1
1.219607542E1,-3.202524662E0,-1.842027187E0,-1.102087021E1,1.162363147E1
1.221534979E1,-2.555036545E0,-6.379152298E0,-1.126856327E0,6.963591097E0
1.223465104E1,-1.926957965E0,-9.249990463E0,1.232795715E-1,9.449375028E0
1.225393891E1,-1.988928080E0,-9.044902802E0,-4.847334862E0,1.045288271E1
1.227321328E1,-6.188952446E0,-6.472629547E0,-4.945309639E0,1.023006124E1
1.229251453E1,-6.169060707E0,-3.887909412E0,-2.937074661E0,7.861269438E0
1.231180234E1,-4.321832180E0,-2.391581535E0,-5.302597046E0,7.246753139E0
1.233107677E1,-4.999032974E0,-7.127981186E-1,-8.912315369E0,1.024342604E1
1.235037802E1,-5.899711609E0,1.238925934E0,-8.312801361E0,1.026860268E1
1.236966583E1,-5.459221840E0,3.076889277E0,-6.307788849E0,8.891487552E0
1.238894021E1,-4.923609734E0,3.965963840E0,-4.875315666E0,7.983702452E0
1.240824151E1,-4.603150845E0,4.147084713E0,-8.577771187E-1,6.254845394E0
1.242752932E1,-5.786741257E0,3.748170137E0,3.806041718E0,7.875348075E0
1.244680370E1,-8.504067421E0,1.885597348E0,1.162872314E1,1.452934417E1
1.246610495E1,-9.335759163E0,-1.605681658E0,2.009460068E1,2.221548084E1
1.248543833E1,-6.976436138E0,-6.582120895E0,2.494153976E1,2.672218895E1
1.250466719E1,-1.470579982E0,-1.249276447E1,3.082230377E1,3.329033162E1
1.252401396E1,3.677952766E0,-1.700708008E1,3.107350540E1,3.561363289E1
1.254325625E1,1.006669235E1,-1.695917892E1,2.415366364E1,3.118255140E1
1.256257729E1,1.309918022E1,-1.186168003E1,1.512437725E1,2.326015397E1
1.258183193E1,9.677311897E0,-6.580227852E0,1.041892242E1,1.566855796E1
1.260113563E1,2.897315741E0,-4.362601280E0,9.796402931E0,1.110838597E1
1.262039412E1,-1.844851851E0,-3.627877235E0,9.613513947E0,1.043957001E1
1.263969537E1,-4.127678871E0,-4.107180119E0,-8.936729431E-1,5.891121516E0
1.265898318E1,-1.364058614E0,-3.516629219E0,-1.441227150E1,1.489768125E1
1.267825760E1,1.134443760E0,-1.692563772E0,-1.682260323E1,1.694555145E1
1.269755886E1,6.172323227E-1,-1.820946932E0,-1.698296547E1,1.709145809E1
1.271684667E1,-8.475253582E-1,-2.507538319E0,-2.420578575E1,2.435007416E1
1.273612104E1,-3.622629881E0,-3.110697508E0,-2.883493614E1,2.922761414E1
1.275542229E1,-7.447385788E0,-3.956105232E0,-2.373147392E1,2.518525716E1
1.277471010E1,-1.161661148E1,-4.858560562E0,-1.412516594E1,1.892277955E1
1.279398453E1,-1.427981377E1,-5.387842178E0,-6.503709793E0,1.659036364E1
1.281328578E1,-1.404508591E1,-5.305526257E0,-4.271390915E0,1.560954283E1
1.283257359E1,-1.223577118E1,-4.158299446E0,-5.958889484E0,1.423073837E1
1.285184797E1,-9.224964142E0,-2.361172676E0,-5.897720814E0,1.120081294E1
1.287114922E1,-6.452930927E0,-6.744947433E-1,-2.769173145E0,7.054330629E0
1.289043708E1,-5.041449547E0,5.418723822E-1,9.775032997E-1,5.163850493E0
1.290971146E1,-2.823071957E0,1.884348035E0,4.315259933E0,5.490170406E0
1.292901271E1,-9.237241745E-2,3.093358278E0,6.970204353E0,7.626345575E0
1.294830052E1,2.000748634E0,3.212187052E0,8.900903702E0,9.671981569E0
1.296757490E1,1.422933578E0,1.201589584E0,8.076316833E0,8.288271900E0
1.298687615E1,1.537659645E0,-1.012189865E0,1.025202370E1,1.041599325E1
1.300620948E1,3.886416912E0,-3.357760906E0,7.693781853E0,9.250571545E0
1.302543833E1,5.548581123E0,-3.865057945E0,2.203566551E0,7.112041265E0
1.304478521E1,4.562579632E0,-2.435090542E0,-1.423467636E0,5.364052475E0
1.306402745E1,1.857172012E0,8.031187057E-1,-9.405608177E-1,2.231309524E0
1.308334849E1,5.892920494E-1,2.242608070E0,2.517355919E0,3.422519087E0
1.310260307E1,1.931455851E0,4.000346661E-1,1.427847481E1,1.441406925E1
1.312193646E1,5.037442207E0,-1.052636147E0,2.837600708E1,2.883889118E1
1.314116526E1,1.247198963E1,-2.041808844E0,3.326350784E1,3.558342961E1
1.316048234E1,1.897141075E1,-6.227493286E-4,2.731211853E1,3.325456728E1
1.317975432E1,1.957707024E1,4.420981407E0,1.064823627E1,2.271985236E1
1.319902875E1,1.330983829E1,8.271732330E0,-3.548898697E0,1.606760820E1
1.321833000E1,8.109790802E0,8.026908875E0,-4.128878117E0,1.213456252E1
1.323761781E1,3.256036043E0,4.540233612E0,4.422912598E-1,5.604561850E0
1.325689219E1,1.606847525E0,8.769118786E-1,1.162348747E0,2.168406793E0
1.327619344E1,8.360852003E-1,-7.696658373E-1,-2.589029312E0,2.827454110E0
1.329548125E1,-1.083588481E0,-2.334398746E0,-5.814329624E0,6.358459757E0
1.331475562E1,-3.530671358E0,-3.129860163E0,-8.623378754E0,9.829767342E0
1.333405688E1,-5.374490738E0,-3.717797279E0,-1.073057175E1,1.256393001E1
1.335334469E1,-5.160526276E0,-4.362198830E0,-1.587380791E1,1.725217631E1
1.337261912E1,-4.909705639E0,-4.675390720E0,-2.167877197E1,2.271417271E1
1.339192036E1,-5.356401443E0,-5.300455093E0,-2.420635986E1,2.535219356E1
1.341120818E1,-5.510815144E0,-6.834734440E0,-1.984775543E1,2.170290474E1
1.343048255E1,-7.613519669E0,-7.239956856E0,-1.210741329E1,1.603034977E1
1.344978380E1,-8.335986137E0,-5.265129089E0,-8.093547821E0,1.275600900E1
1.346907162E1,-6.717863083E0,-2.365287066E0,-6.770370483E0,9.826605914E0
1.348834599E1,-3.128539801E0,-7.386757135E-1,-5.956182480E0,6.768272514E0
1.350764724E1,3.590790272E0,-2.333375216E-1,-4.700614929E0,5.919797453E0
1.352693505E1,5.165769100E0,1.675897598E0,-4.530809402E0,7.072625891E0
1.354620943E1,2.627493382E0,2.310852528E0,1.989904404E0,4.025354694E0
1.356555620E1,3.424646378E0,1.719184518E0,1.205384064E1,1.264827547E1
1.358479849E1,7.756807804E0,3.261399269E-2,1.948511505E1,2.097233510E1
1.360411844E1,8.391218185E0,-2.301571608E0,1.944395638E1,2.130204718E1
1.362337412E1,3.580458164E0,-3.181696415E0,9.465435982E0,1.060836232E1
1.364270750E1,4.196376801E-1,-2.408438444E0,4.753319740E0,5.345158564E0
1.366193636E1,-1.420120597E0,-3.712616205E0,9.376632690E0,1.018437540E1
1.368128312E1,-5.316180229E0,-6.565078735E0,1.128650379E1,1.409777283E1
1.370052536E1,-5.205369473E0,-7.011848450E0,3.546616554E0,9.425517440E0
1.371980109E1,-6.410149574E0,-5.571554184E0,-7.918301105E0,1.161170642E1
1.373910104E1,-6.127267838E0,-5.592026711E0,-1.409276962E1,1.635299145E1
1.375838886E1,-3.519435644E0,-5.756169796E0,-1.168172455E1,1.349009290E1
1.377766323E1,1.962813377E0,-4.543239594E0,-1.211540604E1,1.308727343E1
1.379696448E1,4.708350658E0,-8.231091499E-1,-1.065717411E1,1.167995867E1
1.381625229E1,4.068745136E0,2.979608059E0,-7.167312622E0,8.763739007E0
1.383552667E1,3.906504631E0,4.778813362E0,-7.134603500E0,9.434002475E0
1.385482792E1,3.610280752E0,4.700105190E0,-8.557996750E0,1.040982345E1
1.387411573E1,4.979683876E0,2.599236012E0,-7.634925842E0,9.478679864E0
1.389339011E1,4.056064606E0,6.076049805E-2,-2.649762154E0,4.845264843E0
1.391269136E1,1.060767412E0,-1.939031601E0,3.712443829E0,4.320568277E0
1.393197917E1,2.009344101E-1,-2.576630592E0,3.988168240E0,4.752355811E0
1.395125354E1,5.171566010E-1,-2.219691753E0,3.555459976E-1,2.306706610E0
1.397055479E1,1.121221781E0,-1.315142632E0,-3.142636776E0,3.586489137E0
1.398984261E1,9.355461597E-1,4.789834023E-1,-4.338801861E0,4.464288667E0
1.400911698E1,7.952696085E-1,1.897326946E0,-1.108829975E0,2.337050963E0
1.402841823E1,1.706850648E0,2.766630173E0,2.132486820E0,3.887811941E0
1.404770604E1,4.605186462E0,2.647146463E0,1.727556229E0,5.585658177E0
1.406698042E1,5.052989006E0,1.981446505E0,2.762047768E0,6.089970116E0
1.408632719E1,2.129921913E0,1.161423683E0,1.253071308E1,1.276339464E1
1.410556948E1,1.090230346E0,-1.560579777E0,2.228317642E1,2.236434580E1
1.412488938E1,1.253846645E0,-9.853324890E-1,1.705355835E1,1.712795563E1
1.414414505E1,2.000840425E0,-3.939938545E-1,6.233664513E0,6.558747352E0
1.416347849E1,-2.442124367E0,-6.681937695E0,1.075682163E1,1.289656832E1
1.418270729E1,-9.142531395E0,-1.447568893E1,2.103768158E1,2.712407596E1
1.420202406E1,-1.064019966E1,-1.376308823E1,2.225969315E1,2.825120148E1
1.422129636E1,-5.701936722E0,-1.004289341E1,1.672284317E1,2.032302325E1
1.424065005E1,-3.046696186E0,-3.498145103E0,1.289425945E1,1.370333184E1
1.425987193E1,-2.636076927E0,2.572779179E0,7.147927284E0,8.041203811E0
1.427915974E1,-3.205895424E0,5.229568481E0,4.618005753E-1,6.151374785E0
1.429843412E1,-3.155748844E0,7.474023819E0,-3.661374092E0,8.900867545E0
1.431773536E1,-5.634617805E-2,8.963545799E0,-6.904462814E0,1.131458947E1
1.433702318E1,1.142276406E0,1.070464325E1,-9.825219154E0,1.457494816E1
1.435629755E1,3.231351614E0,9.531152725E0,-1.205668545E1,1.570503644E1
1.437559880E1,4.604669094E0,5.706066132E0,-1.708909607E1,1.859568156E1
1.439488662E1,6.209488392E0,3.899263382E0,-2.254676819E1,2.370904378E1
1.441416099E1,6.568593025E0,3.470381975E0,-2.598366737E1,2.702482073E1
1.443346224E1,6.653443336E0,2.139975309E0,-2.274250793E1,2.379221448E1
1.445275005E1,5.854424953E0,-2.263787985E-1,-1.733647537E1,1.829969719E1
1.447202443E1,7.021290302E0,-3.177024364E0,-1.697351074E1,1.864113913E1
1.449132568E1,8.099789619E0,-5.910173416E0,-1.608209038E1,1.895179075E1
1.451061349E1,7.566617489E0,-8.572622299E0,-1.054317570E1,1.555320247E1
1.452988787E1,3.733037710E0,-1.037694263E1,-2.840363979E0,1.138789605E1
1.454918906E1,2.507476330E0,-1.003420258E1,-1.956157684E-1,1.034460847E1
1.456847688E1,2.078257084E0,-6.905105591E0,1.095649719E0,7.293838772E0
1.458775125E1,2.373946667E0,-3.221728802E0,2.530888557E0,4.735034967E0
1.460705250E1,4.147926331E0,-1.114980340E0,3.851541519E0,5.769128710E0
1.462634031E1,5.999120712E0,-4.047464848E0,1.166711903E1,1.372927847E1
1.464566136E1,3.185738564E0,-8.510718346E0,2.069254303E1,2.260005739E1
1.466491594E1,-5.752713680E-1,-1.178047943E1,2.389839172E1,2.665039887E1
1.468424922E1,-9.115209579E-1,-1.078099060E1,1.828451157E1,2.124579940E1
1.470347807E1,-5.075368881E-1,-1.096692181E1,1.646050644E1,1.978583432E1
1.472282490E1,-5.690822601E0,-1.128336143E1,1.795710945E1,2.195808478E1
1.474206714E1,-9.801246643E0,-1.498966408E1,2.167360306E1,2.811582356E1
1.476138818E1,-1.279522705E1,-1.251885223E1,2.176005173E1,2.817692935E1
1.478064276E1,-1.221228981E1,-4.708040237E0,1.987712860E1,2.379928374E1
1.479993198E1,-1.083364296E1,1.354088426E0,1.874709702E1,2.169458508E1
1.481920495E1,-7.436780930E0,5.665683746E0,1.119351292E1,1.458425227E1
1.483850615E1,-4.800844193E0,9.016731262E0,8.733177185E-2,1.021553594E1
1.485779396E1,-4.384902954E0,1.028965950E1,-5.152986526E0,1.231493957E1
1.487706833E1,-5.327630043E0,1.054042625E1,-5.329499722E0,1.295715226E1
1.489636958E1,-3.727435589E0,9.149120331E0,-6.546303749E0,1.185134050E1
1.491565740E1,-9.701442719E-1,7.195352077E0,-8.121586800E0,1.089378004E1
1.493493177E1,2.077367544E0,4.438249111E0,-1.561267853E1,1.636365613E1
1.495423297E1,7.068231583E0,2.927636623E0,-2.371705627E1,2.492046774E1
1.497352078E1,1.119053841E1,1.831357002E0,-2.796300888E1,3.017468946E1
1.499279516E1,8.964233398E0,3.327287436E-1,-2.637901688E1,2.786253255E1
1.501209641E1,7.840886116E0,-3.946238041E0,-2.215272903E1,2.382846393E1
1.503138422E1,6.214378357E0,-5.706552029E0,-1.546555328E1,1.761722375E1
1.505065859E1,5.835240841E0,-6.043144703E0,-1.112670517E1,1.394177899E1
1.506995979E1,6.607258797E0,-5.411354065E0,-1.142886257E1,1.426735860E1
1.508924760E1,5.720230103E0,-4.266662598E0,-1.225799370E1,1.418392934E1
1.510852198E1,6.146939278E0,-5.229717255E0,-8.965208054E0,1.206274266E1
1.512782323E1,2.483222485E0,-5.489167213E0,-2.580511093E0,6.554112305E0
1.514711104E1,-2.549836636E0,-4.231872559E0,-4.568061829E-1,4.961762198E0
1.516638542E1,-8.844499588E-1,-3.017850399E0,5.093135834E-1,3.185760990E0
1.518568662E1,3.068601370E0,-4.263283253E0,6.845818520E0,8.628854482E0
1.520502000E1,3.089505434E-1,-6.827534199E0,1.349242687E1,1.512469030E1
1.522424880E1,-3.352227211E0,-8.687031746E0,1.576985455E1,1.831366321E1
1.524356589E1,-6.803616285E-1,-8.781043053E0,1.652181053E1,1.872270900E1
1.526283787E1,1.271250725E0,-7.469727516E0,1.693971825E1,1.855712698E1
1.528215776E1,-2.317174077E-1,-5.564861774E0,1.599103928E1,1.693324295E1
1.530141344E1,-1.566295624E-1,-3.751641750E0,1.587940311E1,1.631731571E1
1.532074787E1,4.998521805E-1,-1.780434370E0,1.402999115E1,1.415134094E1
1.533997563E1,2.089623928E0,4.726098776E-1,9.451110840E0,9.690891825E0
1.535927682E1,2.129690170E0,4.684987068E-1,8.367371559E0,8.646847869E0
1.537856464E1,9.772877693E-1,-9.250152111E-2,7.550287247E0,7.613835132E0
1.539783901E1,-9.493207932E-1,5.061554909E-1,4.370266914E0,4.500737301E0
1.541714026E1,-3.188289165E0,2.151005268E0,-3.282958508E0,5.056661747E0
1.543642802E1,-4.213601112E0,3.215872288E0,-1.071880913E1,1.195780657E1
1.545570240E1,-4.556834698E0,3.071876287E0,-1.166875076E1,1.289809718E1
1.547500365E1,-5.287668705E0,2.875854969E0,-9.315932274E0,1.109128380E1
1.549429146E1,-5.974937916E0,2.496773243E0,-9.224020958E0,1.127015183E1
1.551356583E1,-6.962806225E0,2.174536943E0,-8.329563141E0,1.107207765E1
1.553286703E1,-7.355630875E0,1.868819952E0,-6.811427116E0,1.019771214E1
1.555215484E1,-5.440474033E0,1.089871645E0,-4.843599796E0,7.365258780E0
1.557142922E1,-3.426879883E0,4.205408692E-1,-2.948589802E0,4.540324016E0
1.559073042E1,-2.113058805E0,-2.697099447E-1,-1.699950695E0,2.725361138E0
1.561001823E1,-1.623038769E0,-2.982708514E-1,-2.554754257E0,3.041379565E0
1.562929261E1,1.652514458E0,-8.164365292E-1,-1.138805866E0,2.166622127E0
1.564859386E1,4.237592220E0,-1.770129800E0,4.576918602E0,6.483728189E0
1.566788162E1,5.393298149E0,-3.183552265E0,8.125019073E0,1.025858689E1
1.568715599E1,7.439106464E0,-3.485831022E0,7.918269157E0,1.141009682E1
1.570645724E1,1.123340511E1,-1.967850327E0,9.322464943E0,1.472990760E1
1.572579052E1,1.120628834E1,-1.886839628E0,1.054651928E1,1.550387471E1
1.574501938E1,6.316564560E0,-1.481913209E0,9.101349831E0,1.117719210E1
1.576436620E1,4.064734459E0,-3.227584362E-1,1.188525009E1,1.256524608E1
1.578360844E1,3.939992905E0,-3.552913666E-1,1.368934822E1,1.424949230E1
1.580292828E1,1.463765264E0,6.229612827E-1,1.334651470E1,1.344098747E1
1.582218401E1,2.309253216E0,2.277961254E0,1.131888866E1,1.177450629E1
1.584148761E1,7.392759323E0,2.960046768E0,5.351033211E0,9.594181763E0
1.586074615E1,2.811001062E0,1.284168720E0,-2.516685963E0,3.985539425E0
1.588004896E1,-6.165606499E0,-3.044581413E0,-1.585322380E1,1.728030336E1
1.589933521E1,-1.213231468E1,-5.787045956E0,-1.867927551E1,2.301300272E1
1.591860953E1,-1.136205959E1,-5.272971153E0,-1.000261021E1,1.602974841E1
1.593791078E1,-8.931838989E0,-2.833868504E0,-2.787670612E0,9.776485354E0
1.595719859E1,-3.796863079E0,-2.296586514E0,-3.369413376E0,5.571662710E0
1.597647297E1,4.354997635E0,-2.921712399E0,-8.254610062E0,9.779621414E0
1.599577417E1,1.183763218E1,-2.048044443E0,-1.598602104E1,1.999692202E1
1.601506198E1,1.345080471E1,-2.044114828E0,-2.025909042E1,2.440355092E1
1.603433630E1,1.048974991E1,-3.410562992E0,-1.566982174E1,1.916272701E1
1.605363755E1,8.162422180E0,-5.473603249E0,-7.818170547E0,1.255823471E1
1.607292536E1,6.549037457E0,-5.846918106E0,-1.512352467E0,8.908622392E0
1.609219969E1,5.872459888E0,-4.795258522E0,-1.351195812E0,7.701040161E0
1.611150094E1,5.652255058E0,-3.417536259E0,-3.462890148E0,7.457824716E0
1.613078875E1,6.054772377E0,-1.901211143E0,-4.545292377E0,7.806058874E0
1.615006307E1,7.168210030E0,-4.678118229E-1,-9.899930954E-1,7.251356374E0
1.616936432E1,8.391903877E0,-6.400370598E-2,6.330138206E0,1.051184079E1
1.618865214E1,6.132091999E0,8.194537163E-1,1.300836945E1,1.440457331E1
1.620792646E1,3.124023676E0,2.172849655E0,1.509985733E1,1.557197775E1
1.622722771E1,2.471381664E0,3.545264721E0,1.590171146E1,1.647850287E1
1.624651547E1,-1.608854294E0,4.896672249E0,1.787472153E1,1.860299656E1
1.626578984E1,-5.393853664E0,4.702952385E0,1.975672531E1,2.101284401E1
1.628513662E1,-6.122524261E0,4.209953308E0,2.010152435E1,2.143082573E1
1.630437886E1,-4.878728390E0,4.504932880E0,1.758181000E1,1.879405368E1
1.632365464E1,-7.253282547E0,4.759098530E0,1.176829338E1,1.462025498E1
1.634295443E1,-8.418962479E0,3.187753677E0,4.028281212E0,9.862441495E0
1.636228781E1,-7.694384098E0,1.436886787E-1,-3.558282852E0,8.478535837E0
1.638151662E1,-7.185679436E0,-3.338574409E0,-8.642214775E0,1.172467246E1
1.640088406E1,-7.022246361E0,-6.564436913E0,-6.956789970E0,1.186594719E1
1.642010562E1,-5.879679680E0,-8.235819817E0,-2.262173176E0,1.036903027E1
1.643937995E1,-5.109615326E0,-7.964580059E0,-4.380836487E-1,9.472835984E0
1.645868120E1,-6.922904015E0,-5.193947792E0,-3.109979630E0,9.196502974E0
1.647796901E1,-1.013100338E1,-2.013998032E0,-8.721352577E0,1.351870587E1
1.649724333E1,-1.037057972E1,-3.062484264E-1,-1.075700188E1,1.494509288E1
1.651654458E1,-6.042993546E0,6.030368805E-1,-7.495672226E0,9.647099387E0
1.653583234E1,-4.484641075E0,1.008460045E0,-3.066058159E0,5.525369659E0
1.655510672E1,-5.537935257E0,7.546615601E-2,1.698280811E0,5.792976762E0
1.657440792E1,-6.054869175E0,-1.061604023E0,3.969349861E0,7.317389025E0
1.659369573E1,-5.158036709E0,-1.740002632E0,2.673368454E0,6.064639374E0
1.661297011E1,-3.802361965E0,-1.793684244E0,-1.395177841E0,4.429647942E0
1.663227130E1,-2.297453880E0,-2.049673080E0,-4.602402687E0,5.537288557E0
1.665155912E1,-2.173178673E0,-2.357884407E0,-5.531818390E0,6.394008064E0
1.667084688E1,-2.456543922E0,-2.981531620E0,-5.377874374E0,6.621606424E0
1.669013469E1,-1.919276714E0,-3.109174252E0,-3.796047926E0,5.268829803E0
1.670942245E1,-2.731833458E-1,-2.873025894E0,-1.874134064E0,3.441116885E0
1.672869682E1,9.313831329E-1,-1.439816952E0,2.361431122E-1,1.730985547E0
1.674799802E1,1.540164948E0,8.779139519E-1,2.857628345E0,3.362867933E0
1.676728583E1,3.840300560E0,3.981163025E0,8.315799713E0,9.987496798E0
1.678656021E1,6.372358322E0,7.816459179E0,9.518938065E0,1.386773834E1
1.680590698E1,6.528784275E0,1.361299706E1,2.840616703E0,1.536254589E1
1.682514917E1,6.568161488E0,1.582045460E1,-9.986209869E-2,1.713001756E1
1.684447021E1,9.679795265E0,1.096565819E1,8.586764336E0,1.696103233E1
1.686372474E1,9.722902298E0,6.600996017E0,1.715974426E1,2.079819225E1
1.688305812E1,7.266054153E0,5.273365974E0,1.391025162E1,1.655593645E1
1.690228688E1,3.370364189E0,4.387600899E0,5.662800312E0,7.916925147E0
1.692163339E1,-3.441948891E-1,2.365112066E0,1.540951729E-1,2.394988628E0
1.694087589E1,-3.381798267E0,1.225676537E-1,-2.669639587E0,4.310285127E0
1.696015156E1,-5.677365303E0,-1.969643593E0,-3.416465759E0,6.912612455E0
1.697945146E1,-6.519575119E0,-3.194271088E0,-2.585968256E0,7.706844966E0
1.699873927E1,-5.834156036E0,-3.802678108E0,-3.448531866E0,7.771107352E0
1.701801359E1,-5.869638920E0,-4.453217030E0,-5.310763359E0,9.082291034E0
1.703731484E1,-6.555703163E0,-5.152474403E0,-6.110167027E0,1.033728095E1
1.705660261E1,-7.204104900E0,-5.854007244E0,-5.274779797E0,1.067669566E1
1.707589042E1,-6.283704758E0,-6.347589970E0,-4.349350452E0,9.934469954E0
1.709517818E1,-5.754905701E0,-6.627159119E0,-3.889152527E0,9.600191924E0
1.711446599E1,-5.632031918E0,-7.075730801E0,-2.989470482E0,9.524845597E0
1.713374031E1,-5.404824257E0,-7.424788475E0,-2.195415735E0,9.442428681E0
1.715304156E1,-4.793075562E0,-7.289036751E0,-2.980862856E0,9.218957287E0
1.717232932E1,-4.824780464E0,-6.073258877E0,-4.386414528E0,8.910870458E0
1.719160370E1,-3.762331963E0,-4.629892349E0,-5.363465309E0,8.022331649E0
1.721090490E1,-3.016427517E0,-1.819294453E0,-3.782703400E0,5.168898556E0
1.723019266E1,-2.946960449E0,2.536968708E0,-1.533197880E0,4.179890172E0
1.724946703E1,-2.700899124E0,7.159992218E0,-2.584271431E-1,7.656835458E0
1.726876823E1,-1.123130798E0,1.181392097E1,2.089962006E0,1.204981713E1
1.728805604E1,3.260529041E0,1.500196171E1,4.928203106E0,1.612380509E1
1.730733037E1,9.239700317E0,1.398415565E1,6.775627136E0,1.807865577E1
1.732663162E1,1.539840984E1,9.981918335E0,9.805852890E0,2.080635649E1
1.734591938E1,2.036277771E1,6.978643417E0,1.406048107E1,2.571072360E1
1.736523932E1,2.043201447E1,5.837754250E0,1.385719681E1,2.536865178E1
1.738449495E1,1.184999847E1,4.938307285E0,8.589656830E0,1.544640888E1
1.740382943E1,1.601512432E0,3.705680847E0,1.982919216E0,4.497652858E0
1.742305708E1,-4.385992527E0,1.853956699E0,-1.754804134E0,5.074783093E0
1.744237417E1,-7.807839394E0,-4.299340248E-1,-2.787684441E0,8.301709692E0
1.746164609E1,-9.717162132E0,-2.424117804E0,-4.197707176E0,1.085911288E1
1.748096714E1,-1.085385513E1,-4.117914200E0,-6.553362370E0,1.333078943E1
1.750022162E1,-1.128315639E1,-5.831820965E0,-8.689487457E0,1.538918277E1
1.751960578E1,-1.148653984E1,-7.667913437E0,-8.616956711E0,1.627849615E1
1.753878375E1,-1.153926182E1,-9.320004463E0,-6.557312965E0,1.621774953E1
1.755808495E1,-1.023895741E1,-1.044504642E1,-4.476665974E0,1.529626692E1
1.757737276E1,-8.544638634E0,-1.032497025E1,-3.614487886E0,1.388093594E1
1.759664708E1,-6.654868603E0,-9.840475082E0,-3.893189192E0,1.250116587E1
1.761594833E1,-4.849696159E0,-8.885216713E0,-3.123858452E0,1.059363585E1
1.763523609E1,-2.738533497E0,-7.983801842E0,-2.320699930E0,8.753645282E0
1.765451047E1,-1.529071808E0,-6.353057861E0,-2.529897928E0,7.007124111E0
1.767381167E1,-3.192744255E-1,-3.440074205E0,-3.109836102E0,4.648346725E0
1.769309943E1,1.424366951E0,-7.088847160E-1,-1.819048405E0,2.416666268E0
1.771237375E1,2.967303276E0,1.893525600E0,7.893791199E-1,3.607415602E0
1.773167500E1,3.815931797E0,4.236045361E0,2.906785488E0,6.399595116E0
1.775096276E1,4.326546192E0,8.029241562E0,3.580956936E0,9.798519000E0
1.777023708E1,4.901398182E0,1.189958382E1,2.677488327E0,1.314506534E1
1.778953833E1,1.265468121E1,9.859429359E0,7.938434601E0,1.789882811E1
1.780882609E1,2.095634842E1,7.641436100E0,1.798387146E1,2.865274363E1
1.782810047E1,2.976313210E1,8.336124420E0,1.712808228E1,3.533703730E1
1.784740167E1,2.981684875E1,9.122375488E0,1.021480370E1,3.281165066E1
1.786668943E1,1.726492500E1,6.280285835E0,5.973777771E0,1.931853117E1
1.788600927E1,2.728693485E0,1.785619259E0,5.555709362E0,6.442057962E0
1.790526500E1,-7.491236210E0,-1.456669450E0,1.689672947E0,7.816361078E0
1.792455276E1,-1.220435429E1,-3.067700148E0,-5.040049076E0,1.355577893E1
1.794382708E1,-1.475662422E1,-3.901813030E0,-5.647951126E0,1.627517912E1
1.796317495E1,-1.634967232E1,-5.000642776E0,-3.188266754E0,1.739204582E1
1.798241609E1,-1.687829590E1,-5.900910378E0,-4.214429379E0,1.837005799E1
1.800173599E1,-1.523333168E1,-6.518516541E0,-4.565533638E0,1.718690052E1
1.802099167E1,-1.179756165E1,-6.635170460E0,-4.249703407E0,1.418689278E1
1.804029526E1,-9.005722046E0,-6.371526718E0,-5.004714012E0,1.211389882E1
1.805955375E1,-7.264558792E0,-6.380398750E0,-6.253719807E0,1.151487360E1
1.807885495E1,-6.203042984E0,-6.512625694E0,-5.638425827E0,1.061526644E1
1.809814276E1,-5.297480106E0,-6.419798851E0,-5.330817699E0,9.884064453E0
1.811741708E1,-3.339269876E0,-6.528097153E0,-6.121098518E0,9.551681675E0
1.813671828E1,-2.813433170E0,-6.820720673E0,-5.510570049E0,9.208909760E0
1.815600609E1,-2.197308540E0,-5.023060799E0,-4.328218937E0,6.985183160E0
1.817528042E1,-2.290678024E-2,-2.490725517E0,-3.442984819E0,4.249515595E0
1.819458162E1,3.106684685E0,-1.037592888E-1,-6.391472816E-1,3.173446859E0
1.821386938E1,5.180864811E0,3.136775732E0,1.969895840E0,6.368768468E0
1.823314375E1,4.048387527E0,6.529940128E0,3.389600754E0,8.397556366E0
1.825244495E1,7.146557808E0,6.650428772E0,5.142967701E0,1.103411112E1
1.827173271E1,7.227488995E0,5.320683479E0,8.473037720E0,1.234255395E1
1.829100703E1,8.786493301E0,1.661727428E0,8.693318367E0,1.247147092E1
1.831030823E1,1.708268356E1,-3.171798468E0,8.847070694E0,1.949741119E1
1.832959604E1,2.604776382E1,-2.259122372E0,2.006647491E1,3.295835326E1
1.834887036E1,1.989057541E1,1.414198399E0,1.555755806E1,2.529174885E1
1.836817156E1,6.173080444E0,2.760170937E0,-5.267057419E-1,6.782542643E0
1.838745932E1,1.149104595E0,2.868704081E0,-2.868762493E0,4.216598477E0
1.840673370E1,-8.106298447E-1,2.490538120E0,8.947329521E-1,2.767751421E0
1.842603490E1,-4.715496063E0,1.446501017E0,-8.554077148E-1,5.005995473E0
1.844532266E1,-7.269914627E0,5.928241014E-1,-2.514232159E0,7.715209812E0
1.846459698E1,-8.361233711E0,3.946009874E-1,-3.879168272E0,9.225718703E0
1.848394484E1,-8.361082077E0,9.864495993E-1,-5.564905167E0,1.009202387E1
1.850318599E1,-8.370342255E0,1.244649410E0,-6.701296329E0,1.079440383E1
1.852248953E1,-8.544926643E0,7.529178858E-1,-6.735509396E0,1.090640837E1
1.854176151E1,-8.937487602E0,-3.238530159E-1,-5.021998882E0,1.025690198E1
1.856109594E1,-9.454889297E0,-1.549505949E0,-3.261133194E0,1.012081469E1
1.858032365E1,-9.176955223E0,-2.349970341E0,-1.970589161E0,9.675850836E0
1.859962484E1,-8.304464340E0,-2.594402313E0,-1.212978601E0,8.784438993E0
1.861891261E1,-6.808440685E0,-2.324610710E0,-1.158760309E0,7.287071083E0
1.863818693E1,-4.274131298E0,-1.894218206E0,-9.688477516E-1,4.774403306E0
1.865748812E1,-1.958486557E0,-7.167366743E-1,2.802538872E-1,2.104263124E0
1.867677589E1,5.562238693E-1,1.259488463E0,1.744708538E0,2.222544502E0
1.869605021E1,3.791464806E0,1.759483576E0,1.863156319E0,4.576280072E0
1.871535146E1,6.806285858E0,1.532003403E0,3.409504890E0,7.765132659E0
1.873463922E1,8.719928741E0,-1.290779591E0,4.684784412E0,9.982508412E0
1.875391354E1,1.211544037E1,-5.245120525E0,7.194645882E0,1.503522910E1
1.877321474E1,1.363332939E1,-4.734218121E0,9.818609238E0,1.745524502E1
1.879250250E1,1.105241585E1,-2.414004803E0,4.856678009E0,1.231140270E1
1.881177682E1,6.788699150E0,-7.268429995E-1,-1.639968872E0,7.021697430E0
1.883107802E1,3.424255371E0,-7.209765911E-1,-6.313266754E-1,3.555826973E0
1.885036578E1,1.700763702E-1,-1.131329298E0,3.454037428E0,3.638572042E0
1.886964016E1,-3.023214817E0,-8.808960915E-1,3.078296900E0,4.403602793E0
1.888894136E1,-4.498158932E0,5.713958740E-1,-2.589350462E0,5.221557510E0
1.890822912E1,-5.976961136E0,1.896760464E0,-4.731587887E0,7.855551451E0
1.892750344E1,-8.248603821E0,2.474618912E0,-3.123241901E0,9.160668301E0
1.894680464E1,-1.027875710E1,2.673242807E0,-1.685119629E0,1.075354373E1
1.896613906E1,-1.043441391E1,3.137667656E0,-2.458231449E0,1.116981888E1
1.898538016E1,-8.827331543E0,3.621202230E0,-3.590373516E0,1.019439404E1
1.900471344E1,-7.021886349E0,3.599972486E0,-3.348631382E0,8.572048876E0
1.902395568E1,-5.947120667E0,2.945643425E0,-1.740174651E0,6.860996081E0
1.904327562E1,-4.693062305E0,2.383986950E0,-2.895545959E-2,5.263940159E0
1.906253125E1,-2.201646328E0,1.832611084E0,1.368318796E-1,2.867827209E0
1.908186563E1,7.086105347E-1,1.176105142E0,1.024594307E-1,1.376898736E0
1.910109333E1,3.813016891E0,-7.864499092E-2,1.395524979E0,4.061129500E0
1.912039599E1,8.125925064E0,-2.177274704E0,3.297719717E0,9.035825287E0
1.913968229E1,1.332600689E1,-3.906952143E0,3.770669460E0,1.438974228E1
1.915895662E1,1.547125626E1,-5.326391220E0,1.339536667E0,1.641720354E1
1.917825781E1,1.361134911E1,-6.080587864E0,-1.204893947E0,1.495640808E1
1.919754557E1,1.278880310E1,-6.645388603E0,-1.721357703E0,1.451474239E1
1.921681990E1,1.475821400E1,-7.018767834E0,-4.677691460E-1,1.634890792E1
1.923612109E1,1.501137924E1,-3.814798832E0,-4.284023941E-1,1.549444176E1
1.925540886E1,1.034910870E1,-5.663073063E-1,-3.779168606E0,1.103208367E1
1.927468318E1,4.158183098E0,1.688657999E0,-6.003436089E0,7.495551840E0
1.929398438E1,-1.853502750E0,2.673253059E0,-4.499574661E0,5.552290203E0
1.931327214E1,-5.720311165E0,3.229815483E0,-1.839454412E0,6.821822367E0
1.933254646E1,-7.410875320E0,3.259398937E0,8.252570629E-1,8.137923793E0
1.935184766E1,-8.886725426E0,2.857296467E0,2.509596348E0,9.666235344E0
1.937113542E1,-1.062079430E1,2.271263599E0,2.915561676E0,1.124546174E1
1.939040974E1,-1.180320072E1,1.417799354E0,2.731217623E0,1.219775602E1
1.940971094E1,-1.178844070E1,2.586556673E-1,2.578973055E0,1.207001819E1
1.942899870E1,-1.051331806E1,-8.363468051E-1,2.219378233E0,1.077752163E1
1.944827302E1,-8.339809418E0,-1.558950543E0,1.612199545E0,8.636083331E0
1.946757422E1,-6.494675159E0,-2.034839153E0,7.233959436E-1,6.844317168E0
1.948686198E1,-4.659954548E0,-2.588790894E0,8.851988316E-1,5.403757179E0
1.950613630E1,-2.238283634E0,-2.536355495E0,1.700160980E0,3.785968857E0
1.952548307E1,8.391914368E-1,-2.184720039E0,1.693014979E0,2.888519281E0
1.954472526E1,3.036242485E0,-9.708154202E-1,2.823726892E0,4.258483835E0
1.956404510E1,5.547147751E0,9.521000385E-1,3.647145748E0,6.706639603E0
1.958330078E1,8.571365356E0,2.164638996E0,3.819856644E0,9.630434613E0
1.960263412E1,8.738968849E0,3.148436785E0,4.404677391E0,1.028024385E1
1.962187630E1,7.295413971E0,2.745693445E0,5.348087311E0,9.453249991E0
1.964120964E1,9.574220657E0,1.482865572E0,4.625338078E0,1.073584388E1
1.966045182E1,1.113163757E1,2.048044920E0,3.529968262E0,1.185615954E1
1.967972615E1,7.723908424E0,1.854516268E0,3.992076397E0,8.890144312E0
1.969902734E1,2.815742493E0,8.652282953E-1,2.707524776E0,4.000964409E0
1.971831511E1,-1.868511677E0,1.297390461E-1,1.417495370E0,2.348927677E0
1.973758938E1,-5.443310738E0,-8.845639229E-2,7.442678213E-1,5.494669318E0
1.975689057E1,-6.997479439E0,-5.791902542E-3,2.764163017E-1,7.002939241E0
1.977617833E1,-8.015033722E0,1.029856205E-1,1.010656357E-1,8.016332445E0
1.979545266E1,-9.269647598E0,5.869960785E-2,5.754084587E-1,9.287675012E0
1.981475386E1,-1.017989826E1,-3.661086559E-1,1.302318931E0,1.026939135E1
1.983404162E1,-1.034571457E1,-1.132456183E0,2.019213438E0,1.060157959E1
1.985332938E1,-9.374151230E0,-1.957307339E0,2.057356834E0,9.794819061E0
1.987261714E1,-8.148120880E0,-2.576116323E0,1.196483254E0,8.629010451E0
1.989190490E1,-6.906305313E0,-2.909278870E0,4.074308872E-1,7.505128683E0
1.991117922E1,-6.243022919E0,-3.266768694E0,2.883042097E-1,7.051966547E0
1.993048036E1,-4.221637249E0,-3.612500191E0,1.133247018E0,5.670681396E0
1.994976813E1,-1.691980362E-1,-3.431311607E0,1.974078536E0,3.962261146E0
1.996904245E1,3.088401794E0,-1.689280033E0,1.171957016E0,3.710171953E0
1.998834365E1,4.731143951E0,-2.726261616E-1,7.100080252E-1,4.791884755E0
2.000763141E1,5.324301720E0,-1.536116600E-1,1.375331402E0,5.501210940E0
2.002690573E1,6.560614586E0,1.330888033E0,1.914306402E0,6.962578237E0
2.004625245E1,1.102595234E1,2.263329268E0,1.659824252E0,1.137757887E1
2.006549464E1,1.931708908E1,1.107328415E0,-2.262747526E0,1.948066049E1
2.008481568E1,2.129805374E1,1.772233963E0,-6.594280720E0,2.236587679E1
2.010407016E1,1.654717636E1,1.707489491E0,-3.889714479E0,1.708374797E1
2.012340344E1,9.327793121E0,1.841226816E0,2.836859226E0,9.921976163E0
2.014263224E1,3.059581757E0,2.579024315E0,6.063921452E0,7.265228855E0
2.016194922E1,-1.128621101E0,3.414902449E0,3.326986790E0,4.899406640E0
2.018122115E1,-4.422688961E0,4.107456684E0,-1.612868786E0,6.247617448E0
2.020049714E1,-6.191515446E0,4.569252968E0,-5.744875908E0,9.602944100E0
2.021979667E1,-8.247653008E0,4.546989441E0,-6.483833313E0,1.143411507E1
2.023908443E1,-9.728411674E0,4.222655773E0,-4.269833565E0,1.143259787E1
2.025835870E1,-9.462591171E0,3.907051563E0,-2.502318382E0,1.053884628E1
2.027765990E1,-7.861420631E0,3.490882397E0,-2.401424408E0,8.930567364E0
2.029694766E1,-5.681578159E0,2.881682396E0,-3.404547691E0,7.223251954E0
2.031623542E1,-4.126051426E0,1.768184543E0,-4.231700420E0,6.169121931E0
2.033552312E1,-3.257616997E0,1.152730107E0,-3.763597012E0,5.109355895E0
2.035481089E1,-1.606636047E0,1.439879060E0,-4.056152344E0,4.594224954E0
2.037408521E1,2.045436859E0,1.803456783E0,-1.020741940E0,2.911731859E0
2.039338641E1,5.193896294E0,3.344912529E-1,5.819333076E0,7.807245389E0
2.041267412E1,5.795080662E0,-7.914139032E-1,8.848801613E0,1.060710073E1
2.043194844E1,4.713587284E0,4.100797176E-1,6.275885582E0,7.859568073E0
2.045124964E1,4.456375122E0,8.861005306E-1,7.240044594E0,8.547672145E0
2.047053740E1,3.579565048E0,3.697345257E-1,1.090656281E1,1.148490757E1
2.048981167E1,-2.293585062E0,1.617846727E0,8.657924652E0,9.101517442E0
2.050911287E1,-4.987761974E0,2.848837137E0,6.171212196E0,8.430747447E0
2.052840062E1,-8.345154524E-1,1.855343342E0,8.304179192E0,8.549743096E0
2.054767490E1,-5.844664574E-2,1.192694664E0,6.040899277E0,6.157791864E0
2.056697609E1,-5.317679644E-1,5.559537411E-1,-1.542965412E0,1.724124123E0
2.058626386E1,-1.331596255E0,-7.443118095E-1,-9.613781929E0,9.734061415E0
2.060558370E1,-2.186342239E0,-2.086729527E0,-1.025873756E1,1.069468227E1
2.062483932E1,9.286932945E-1,-1.675550342E0,-3.335896492E0,3.846835789E0
2.064414292E1,1.949297071E0,-2.144022942E0,-3.594369888E-1,2.919895271E0
2.066340141E1,1.393485069E-1,-2.900993824E0,-3.766313076E0,4.756080041E0
2.068274807E1,-2.864149213E-1,-2.372100592E0,-5.378947735E0,5.885743238E0
2.070199031E1,-4.010444880E-1,-1.203019142E0,-6.354663849E0,6.479957127E0
2.072131130E1,-1.731121063E0,-4.326171279E-1,-8.372978210E0,8.560998880E0
2.074056578E1,-1.994347095E0,-9.892463684E-3,-8.730098724E0,8.955006529E0
2.075985354E1,-1.326654077E0,-4.507577419E-2,-7.431385517E0,7.549008781E0
2.077912786E1,-3.942585289E-1,4.443302155E-1,-4.205044270E0,4.246794843E0
2.079842901E1,2.543795109E-2,3.059093952E-1,-3.896713734E0,3.908785690E0
2.081771677E1,7.991293073E-2,-2.036678791E-2,-5.847490311E0,5.848071803E0
2.083699104E1,-5.944256485E-2,1.550263166E-1,-4.563939571E0,4.566958615E0
2.085629224E1,8.107175231E-1,-3.367582560E-1,-1.388082504E-1,8.887838633E-1
2.087558000E1,1.330723643E0,-1.571432233E0,3.893813133E0,4.404770754E0
2.089485427E1,2.862265825E0,-2.735100508E0,7.920423508E0,8.854741610E0
2.091415547E1,2.299984694E0,-2.686944723E0,7.566483498E0,8.352321477E0
2.093344318E1,-3.334406376E0,-9.597772360E-1,-1.320212364E0,3.712465341E0
2.095271750E1,-6.998415470E0,-2.090091705E-1,-7.482783318E0,1.024761192E1
2.097201870E1,-3.606308699E0,-2.474785089E0,-6.114391804E0,7.517699834E0
2.099130641E1,-9.669718742E-1,-5.207107544E0,4.057394981E0,6.671690761E0
2.101058073E1,-8.526775837E-1,-5.377503872E0,1.312237072E1,1.420708345E1
2.102988188E1,8.686668396E0,-7.298945427E0,1.532256031E1,1.906603437E1
2.104916964E1,1.017033195E1,-5.235037804E0,7.640466690E0,1.375565353E1
2.106844396E1,3.113451481E0,3.086596727E-1,3.930732727E0,5.023893977E0
2.108774510E1,6.113828421E-1,2.844343185E0,4.358456612E0,5.240250106E0
2.110703286E1,2.483674526E0,2.135123968E0,1.348617554E0,3.542056298E0
2.112635271E1,6.892172813E0,3.311999083E0,1.694505692E0,7.832160210E0
2.114560833E1,-1.395807624E0,5.943081379E0,-3.566974163E0,7.070487952E0
2.116494151E1,-4.131352901E0,5.356083870E0,-4.218368053E0,7.971846728E0
2.118417036E1,-1.864908934E0,3.181438446E0,-4.080295086E0,5.499840353E0
2.120351703E1,1.290192246E0,2.000641108E0,-3.854064465E0,4.530008142E0
2.122275927E1,4.292843640E-1,1.417900324E0,-5.036538124E0,5.249899301E0
2.124207906E1,1.073353529E0,-1.929314137E-1,-5.183040142E0,5.296528622E0
2.126133474E1,3.094424009E0,-1.583258152E0,-5.134914398E0,6.200767066E0
2.128062391E1,3.474596262E0,-1.867026448E0,-6.133375168E0,7.292249166E0
2.129989677E1,1.863799095E0,-1.535372019E0,-4.252025127E0,4.889870345E0
2.131919792E1,-9.785164595E-1,-1.317178130E0,8.185863495E-2,1.642910078E0
2.133848568E1,-2.491552353E0,-2.543704271E0,4.636062622E0,5.845625816E0
2.135775995E1,-5.948971510E-1,-4.424407005E0,8.185953140E0,9.324114370E0
2.137706115E1,1.024283648E0,-5.928242683E0,1.035995007E1,1.198005775E1
2.139634886E1,1.378104091E0,-7.385176659E0,1.267347908E1,1.473285706E1
2.141562318E1,1.943941355E0,-9.953992844E0,1.730813980E1,2.006072244E1
2.143492432E1,4.396561623E0,-1.189247894E1,1.794805145E1,2.197483471E1
2.145421203E1,-2.436661720E0,-9.164707184E0,1.036020756E1,1.404503751E1
2.147348636E1,-8.699301720E0,-4.811660767E0,7.578253746E0,1.250039438E1
2.149278750E1,-3.189434290E0,-4.500126839E-2,1.207218075E1,1.248647525E1
2.151207526E1,2.817948818E0,8.470294952E0,9.214015961E0,1.282906163E1
2.153134953E1,9.190261841E0,1.627586555E1,-2.402795792E0,1.884510918E1
2.155065068E1,1.040790749E1,1.761123848E1,-1.813864517E1,2.734027629E1
2.156993844E1,6.246581078E-1,1.267633247E1,-2.169636726E1,2.513586989E1
2.158921271E1,-9.718230247E0,7.503432751E0,-1.886165142E0,1.242188074E1
2.160851391E1,-1.153485775E1,6.464752197E0,7.067860603E0,1.499335245E1
2.162780162E1,-6.421380997E0,5.545782089E0,-1.320065498E0,8.586757584E0
2.164707594E1,-4.045271397E0,5.282100201E0,-1.131465435E1,1.312578402E1
2.166637708E1,-4.305882454E0,2.672240257E0,-8.493735313E0,9.890653733E0
2.168571037E1,-5.148645401E0,-8.175784349E-2,-2.092549324E0,5.558236814E0
2.170493912E1,-2.761157036E0,-1.554997087E0,-2.234935760E-1,3.176783514E0
2.172428573E1,-5.820640326E-1,-2.278257847E0,-8.146781921E-1,2.488565432E0
2.174352797E1,-1.957091093E-1,-2.024969578E0,-5.927076340E-1,2.118987066E0
2.176283151E1,2.844321728E-2,-2.530292988E0,-9.744338989E-1,2.711588657E0
2.178210344E1,1.199667692E0,-3.005507946E0,-2.450491905E0,4.059210658E0
2.180143672E1,2.361638069E0,-3.487323284E0,-1.966107368E0,4.648046497E0
2.182066547E1,2.374670744E0,-4.095958710E0,2.409757614E0,5.312520179E0
2.183996797E1,1.743537664E0,-3.496588707E0,4.911122322E0,6.275761200E0
2.185925432E1,9.149087071E-1,-1.093086243E0,4.380306244E0,4.606406220E0
2.187852865E1,-6.508820653E-1,4.641246796E-1,3.530409813E0,3.619786268E0
2.189782979E1,-2.527676105E0,2.414928913E0,3.773509026E0,5.143967196E0
2.191711750E1,-1.817829847E0,2.694049835E0,3.524537086E0,4.794243584E0
2.193639177E1,-1.411245584E0,1.508503199E0,6.755845070E0,7.064604632E0
2.195569297E1,-2.505281210E0,-5.649268627E-1,1.246685505E1,1.272863116E1
2.197498068E1,-2.790109873E0,2.625155449E-2,1.512795448E1,1.538312092E1
2.199425495E1,2.169577837E0,7.963438034E-1,1.095050812E1,1.119173175E1
2.201355609E1,1.736237645E0,1.126720905E0,5.944172859E0,6.294220535E0
2.203284386E1,-5.994672775E0,1.416131973E0,-2.092373848E0,6.505348551E0
2.205211812E1,-7.437415123E0,7.414188385E-1,-1.340062618E1,1.534410726E1
2.207141927E1,-4.225042820E0,1.639307499E0,-2.175676155E1,2.222374831E1
2.209070698E1,-2.485907078E0,-1.377271891E0,-2.008505630E1,2.028512013E1
2.210998130E1,-4.555853844E0,-3.760938644E0,-1.193554497E1,1.331757100E1
2.212928245E1,-5.917778969E0,-4.879260063E0,-8.064838409E0,1.112964084E1
2.214857016E1,-4.141240120E0,-4.881772518E0,-7.079452515E0,9.544643553E0
2.216784443E1,5.093781948E-1,-4.447793961E0,-8.285672188E0,9.417786410E0
2.218714563E1,2.455449820E0,-3.485027790E0,-9.458437920E0,1.037481086E1
2.220647886E1,-2.225719690E-1,-3.023322344E0,-9.047764778E0,9.542120506E0
2.222570760E1,-2.231752634E0,-2.129150152E0,-5.147231579E0,6.000666056E0
2.224502453E1,-1.221214771E0,-2.829212666E0,-4.482564926E-1,3.113959490E0
2.226429646E1,-4.901058674E-1,-3.966951847E0,6.294026375E0,7.455982747E0
2.228361630E1,-1.324172020E0,-4.486593246E0,1.243005943E1,1.328116441E1
2.230287193E1,-3.379621983E0,-5.054947853E0,1.286657524E1,1.423106113E1
2.232217542E1,-3.591072083E0,-5.483460426E0,7.757513046E0,1.015594139E1
2.234143391E1,-2.735055447E0,-5.703432083E0,1.820241928E0,6.582016902E0
2.236078068E1,-3.043716192E0,-4.832624435E0,4.160184860E-1,5.726389663E0
2.238002276E1,-3.406723261E0,-3.758815050E0,2.956615448E0,5.871629149E0
2.239940672E1,-5.085905075E0,-2.919452667E0,6.446535110E0,8.714783373E0
2.241859823E1,-5.477659225E0,-3.135279894E0,7.334628105E0,9.676337119E0
2.243788594E1,-4.397116661E0,-3.557349920E0,5.915627480E0,8.184376694E0
2.245716021E1,-6.884233952E-1,-5.255464554E0,2.102317810E0,5.702067574E0
2.247646136E1,3.120144367E0,-5.505415916E0,-2.790797710E0,6.916173591E0
2.249574906E1,5.488200188E0,-4.193146706E0,-5.770795822E0,9.000272497E0
2.251502333E1,4.825510502E0,-2.195062876E0,-4.509172916E0,6.959633110E0
2.253432448E1,2.860318184E0,-4.263949394E-1,-1.845529556E0,3.430628529E0
2.255361219E1,1.346972227E0,8.671905994E-1,-7.946376801E-1,1.788240129E0
2.257288646E1,1.365839005E0,1.473347068E0,-2.731501579E0,3.390776997E0
2.259218761E1,2.776889324E0,2.092946053E0,-6.726801872E0,7.572410510E0
2.261147531E1,5.236967087E0,2.610531807E0,-1.056251049E1,1.207507054E1
2.263074964E1,7.834625721E0,2.367260933E0,-1.208884335E1,1.459881564E1
2.265005078E1,5.715535164E0,1.865599394E0,-9.656102180E0,1.137488957E1
2.266933849E1,-3.518289924E-1,2.704173565E0,-5.641450882E0,6.265964121E0
2.268861276E1,-1.668240309E0,2.668034077E0,-4.077815533E0,5.150729180E0
2.270791391E1,5.515801907E-2,2.485632420E0,-2.527104378E0,3.545090615E0
2.272720162E1,4.821078777E-1,2.090904713E0,1.411223412E0,2.568241040E0
2.274647589E1,-5.502073765E-1,1.638135195E0,4.739033699E0,5.044269568E0
2.276582255E1,7.790305614E-1,-6.544559002E-1,3.411121368E0,3.559627808E0
2.278506474E1,5.377148390E-1,-2.351818562E0,1.503599167E0,2.842709667E0
2.280438453E1,-3.101361275E0,-1.671893358E0,1.316609383E0,3.761266997E0
2.282364016E1,-6.600634098E0,-6.941406727E-1,-1.099681854E-2,6.637041713E0
2.284297344E1,-9.414756775E0,1.170989156E0,-1.495166779E0,9.604394017E0
2.286221557E1,-7.588408947E0,1.846682191E0,-2.233571529E0,8.122993736E0
2.288154995E1,-3.160341740E0,-1.602005482E0,8.298606873E-1,3.639072716E0
2.290079099E1,8.175070286E-1,-5.778133869E0,7.662201881E0,9.631432210E0
2.292006672E1,2.231454849E0,-6.524126053E0,1.235515785E1,1.414897654E1
2.293936641E1,3.035370827E0,-3.892498016E0,9.558030128E0,1.075736756E1
2.295865412E1,3.851565838E0,-1.970011234E0,1.627521515E0,4.622156418E0
2.297792839E1,1.466531634E0,-3.307290077E-1,-3.037801743E0,3.389444813E0
2.299722948E1,-6.603211164E-1,6.517333984E-1,-5.589634895E0,5.666109659E0
2.301651719E1,-2.423718274E-1,1.183810949E0,-8.444141388E0,8.530162733E0
2.303579146E1,1.979639530E-1,1.566946268E0,-9.792655945E0,9.919204645E0
2.305509261E1,-8.703759313E-1,2.079747438E0,-8.035507202E0,8.345794130E0
2.307438031E1,-9.966408014E-1,2.297447920E0,-5.949838638E0,6.455396165E0
2.309366802E1,-4.368977547E-1,2.127425671E0,-5.377021790E0,5.799067421E0
2.311295573E1,-1.676057577E-1,1.486701965E0,-4.657571793E0,4.891967848E0
2.313224344E1,-1.752156019E-1,6.922483444E-1,-1.690744400E0,1.835354163E0
2.315151771E1,2.536251545E-1,1.529693604E-3,2.740434647E0,2.752146455E0
2.317081880E1,2.465895653E0,-2.114764690E0,3.749142647E0,4.960740031E0
2.319010651E1,3.390782833E0,-3.201987982E0,3.168974876E0,5.638487122E0
2.320938078E1,1.823642731E0,-1.743242264E0,5.034686089E0,5.631396844E0
2.322868193E1,5.393790007E-1,-7.514116764E-1,7.070724487E0,7.130967255E0
2.324796964E1,-8.617919683E-1,6.907831430E-1,7.906375885E0,7.983147649E0
2.326724391E1,-2.282516956E0,3.015112877E0,5.293255806E0,6.505332147E0
2.328654500E1,-3.885484695E0,5.965102673E0,1.806957245E0,7.344694391E0
2.330583271E1,-3.162716389E0,5.140404224E0,-1.030679703E0,6.122812360E0
2.332515245E1,-5.045315266E0,2.394117355E0,1.043746948E0,5.681233293E0
2.334440812E1,-8.409711838E0,1.220217943E0,4.561596870E0,9.644705855E0
2.336374250E1,-5.531141758E0,-2.192958355E0,-1.984806061E0,6.272324178E0
2.338297011E1,-2.181056738E0,-4.404190063E0,-1.114904404E1,1.218421444E1
2.340231677E1,-2.121297598E0,-4.220255852E0,-1.257913399E1,1.343670625E1
2.342155891E1,-1.496826172E0,-3.567578554E0,-7.651650906E0,8.574139427E0
2.344084901E1,1.171431541E-1,-1.688829899E0,-3.019167423E0,3.461392910E0
2.346013432E1,2.401430368E0,6.268248558E-1,-1.796824932E0,3.064042599E0
2.347951787E1,4.437014580E0,1.427651882E0,-9.824113846E-1,4.763446274E0
2.349869625E1,3.242024422E0,1.252600670E0,1.000477791E0,3.616723185E0
2.351799740E1,-5.253868103E-1,1.401740551E0,3.309631348E0,3.632432729E0
2.353728511E1,-3.556525946E0,2.038552284E0,3.880404472E0,5.644653319E0
2.355655932E1,-4.026668072E0,1.977562428E0,1.479123116E0,4.723622985E0
2.357586047E1,-1.978895664E0,1.481740475E0,-1.290413857E0,2.788682629E0
2.359514818E1,4.816377163E-1,9.354305267E-1,-1.175539970E0,1.577624601E0
2.361442245E1,1.886708021E0,6.085815430E-1,1.481359482E0,2.474765558E0
2.363372354E1,3.034329414E0,-4.073805809E-1,3.715019226E0,4.813988137E0
2.365301125E1,2.138967514E0,-1.811735153E0,3.836967468E0,4.751829715E0
2.367228552E1,-7.781918645E-1,-1.509376049E0,2.459239960E0,2.988588265E0
2.369158662E1,-1.032173634E-2,-1.643702507E0,2.099543571E0,2.666448514E0
2.371087432E1,2.970760584E0,-2.405720472E0,3.803173065E0,5.392312565E0
2.373016203E1,2.369440556E0,-2.892130852E0,4.057043076E0,5.517088718E0
2.374944969E1,7.396943569E-1,-3.653980494E0,1.047142029E0,3.872367185E0
2.376873740E1,1.648278475E0,-3.750255585E0,-4.548023701E0,6.120927909E0
2.378801167E1,2.888454676E0,-1.640979528E0,-6.183859825E0,7.019694193E0
2.380731276E1,2.899684906E0,-1.277843237E0,-4.551013470E0,5.545518866E0
2.382660047E1,-2.779300690E0,-4.061899185E0,4.339485168E-1,4.940834811E0
2.384592141E1,-5.967148304E0,-6.683785439E0,1.301549244E1,1.580135722E1
2.386517583E1,-1.200387716E0,-6.142816544E0,2.119725227E1,2.210200511E1
2.388451026E1,2.118529320E0,-2.729912996E0,1.504115772E1,1.543298471E1
2.390373776E1,9.173387289E-1,8.309104443E-1,5.505649567E0,5.643057652E0
2.392305469E1,1.040520549E0,3.005228043E0,1.814831734E0,3.661651652E0
2.394232656E1,1.710914373E0,4.638567924E0,-1.253409386E0,5.100448556E0
2.396164646E1,1.301891446E0,5.013779163E0,-3.622082710E0,6.320789982E0
2.398090198E1,-1.144818068E-1,5.536862373E0,-3.536863327E0,6.571099849E0
2.400019109E1,-8.021682501E-1,5.752525806E0,-3.220057011E0,6.641068755E0
2.401947734E1,-1.001617908E0,5.564467907E0,-3.606480122E0,6.706209092E0
2.403876500E1,-9.740523100E-1,4.952362537E0,-4.186345577E0,6.557450869E0
2.405805271E1,-8.279560804E-1,4.466475487E0,-5.403800011E0,7.059459547E0
2.407734036E1,-8.144336343E-1,3.779959202E0,-6.091126919E0,7.214791809E0
2.409662807E1,-1.354095817E0,2.913881302E0,-5.212712288E0,6.123450753E0
2.411591573E1,-1.943295479E0,1.536798835E0,-3.231089115E0,4.071619438E0
2.413519000E1,-1.557783484E0,2.220892906E-2,2.558326721E-2,1.558151830E0
2.415449109E1,-5.982536674E-1,-1.313587904E0,3.217826843E0,3.526730813E0
2.417377880E1,2.855310440E-1,-2.600341558E0,6.371663094E0,6.887771394E0
2.419305302E1,2.391803265E-2,-3.844341755E0,9.314649582E0,1.007681658E1
2.421235417E1,1.130222201E0,-4.567483425E0,8.200794220E0,9.454751869E0
2.423164182E1,3.732648373E0,-3.770393848E0,5.854303360E0,7.900721580E0
2.425091609E1,3.850964546E0,-1.744419456E0,4.444068909E0,6.133732602E0
2.427021719E1,-2.431582808E-1,-5.589795113E-2,4.780727386E0,4.787233530E0
2.428950490E1,-2.712081909E0,2.455375195E-1,8.470300674E0,8.897284444E0
2.430877912E1,-3.090340376E0,4.625778198E-1,9.086393356E0,9.608679727E0
2.432808026E1,-3.646968365E0,9.602725506E-1,8.220149040E0,9.043967706E0
2.434736792E1,-2.504493475E0,3.107712269E-1,9.527768135E0,9.856339684E0
2.436664219E1,-2.062417269E0,-1.060049176E0,8.489598274E0,8.800599304E0
2.438594328E1,-3.592073441E0,-9.816361666E-1,2.996815681E0,4.779906421E0
2.440527865E1,-2.000451803E0,5.340766907E-2,1.375198364E-3,2.001165082E0
2.442450521E1,1.811316133E0,5.686452389E-1,-2.674799442E0,3.280057255E0
2.444380630E1,1.359040499E0,7.010116577E-1,-4.710648060E0,4.952637031E0
2.446309401E1,3.967351913E-1,-1.234581470E-1,-4.644266605E0,4.662815998E0
2.448237120E1,8.223059177E-1,-1.608334780E0,-4.515005112E0,4.862941388E0
2.450166932E1,2.202015877E0,-2.595921040E0,-4.708965302E0,5.810510664E0
2.452095995E1,4.355915070E0,-3.081748486E0,-6.254320621E0,8.221173655E0
2.454023125E1,3.491485357E0,-4.089837074E0,-8.063665390E0,9.692261698E0
2.455953234E1,1.080032587E0,-5.584642410E0,-8.195402145E0,9.975936927E0
2.457882005E1,-3.531343937E-1,-6.233344555E0,-7.273616314E0,9.585655039E0
2.459810771E1,6.394505501E-2,-6.347726822E0,-6.333613396E0,8.967295212E0
2.461739536E1,1.002434134E0,-6.318245411E0,-5.460541725E0,8.410862928E0
2.463668307E1,-1.325919628E-1,-5.321070671E0,-4.154901505E0,6.752375895E0
2.465595729E1,-2.151291370E0,-3.712440729E0,-2.970082283E0,5.218396257E0
2.467525839E1,-2.873609543E0,-1.484318256E0,-3.009230137E0,4.417725490E0
2.469454609E1,-2.415026188E0,7.863759995E-1,-5.068321228E0,5.669093294E0
2.471382031E1,-2.186527729E0,2.631459236E0,-5.068529129E0,6.115183460E0
2.473312141E1,-2.603718281E0,3.059332371E0,-6.954798698E-1,4.077076856E0
2.475240912E1,-3.628498316E0,2.884255409E0,5.191798687E0,6.959863713E0
2.477168333E1,-3.160962343E0,3.023774147E0,7.639178276E0,8.802950515E0
2.479098443E1,-1.452654243E0,3.739903927E0,5.732827187E0,6.997313290E0
2.481027208E1,2.401438951E0,3.261425495E0,5.333241463E0,6.696810420E0
2.482954636E1,4.658143997E0,1.934113979E0,5.526905060E0,7.482364728E0
2.484884745E1,4.217861176E0,5.392823219E-1,3.439078331E0,5.468860767E0
2.486813510E1,5.205009460E0,-1.871795654E-1,8.122253418E-2,5.209007273E0
2.488762948E1,5.655537128E0,-2.051058292E0,-3.952300072E0,7.198098095E0
2.490730281E1,2.715143919E0,-3.789039612E0,-3.932281017E0,6.098496674E0
2.492696240E1,4.209377766E-1,-4.242807865E0,-2.379696369E0,4.882782199E0
2.494664938E1,1.164978266E0,-4.863882065E0,-1.163725376E0,5.135054026E0
2.496632271E1,2.888331890E0,-5.294002056E0,4.022388458E-1,6.044064441E0
2.498599599E1,2.986225605E0,-5.524760246E0,3.015699387E-1,6.287405154E0
2.500566932E1,2.128551006E0,-5.831664562E0,-1.604899406E0,6.412077905E0
2.502534266E1,1.856687307E0,-6.010437489E0,-4.504092693E0,7.736891983E0
2.504500224E1,1.933507442E0,-5.814053535E0,-6.506600380E0,8.937422338E0
2.506468922E1,1.590899587E0,-5.361083031E0,-6.426608086E0,8.519006060E0
2.508436297E1,5.266602635E-1,-4.564538479E0,-4.750281811E0,6.608900048E0
2.510397396E1,-6.179497242E-1,-3.453353882E0,-2.564082623E0,4.345346314E0
2.512367927E1,-1.328466892E0,-1.539340496E0,-1.068778992E0,2.297102954E0
2.514298438E1,-3.140324593E0,8.947157860E-1,6.366186142E-1,3.326775938E0
2.516226172E1,-4.370532036E0,3.453216076E0,1.875882149E0,5.877515239E0
2.518155969E1,-5.206933975E0,6.139446259E0,2.820302010E0,8.529892450E0
2.520085057E1,-6.567988396E0,8.792806625E0,9.783897400E-1,1.101858278E1
2.522012156E1,-7.150242805E0,1.002959633E1,-1.703694820E0,1.243468338E1
2.523942266E1,-6.002812386E0,9.424777031E0,-2.729401588E-1,1.117741808E1
2.525871031E1,-2.020648479E0,3.624236107E0,3.515837669E0,5.438678346E0
2.527798453E1,9.989572763E-1,-3.154125929E0,7.046447754E0,7.784526444E0
2.529728562E1,-8.837093115E-1,-5.678303719E0,9.383394241E0,1.100327964E1
2.531657333E1,-3.494962692E0,-3.199623346E0,6.372016907E0,7.940714907E0
2.533584755E1,-3.118851662E0,-7.113471031E-1,-1.660607815E0,3.604284770E0
2.535514865E1,-2.302835703E0,2.182361841E0,-7.155138969E0,7.826989789E0
2.537443630E1,-3.396384716E-1,3.339239120E0,-1.064261055E1,1.115934727E1
2.539371052E1,-1.126964092E0,3.089677572E0,-1.142746353E1,1.189130263E1
2.541301162E1,-2.850225687E0,2.276903391E0,-8.086231232E0,8.871032130E0
2.543229927E1,-2.375608921E0,1.265919089E0,-3.695479870E0,4.571940546E0
2.545157349E1,-3.990649879E-1,1.815471649E-1,-2.355678558E0,2.396128901E0
2.547087458E1,3.323617578E-1,-1.524423361E-1,-3.676162720E0,3.694303093E0
2.549016224E1,4.643270969E-1,4.765610695E-1,-4.734028339E0,4.780557962E0
2.550944990E1,1.096138358E-1,1.215438366E0,-4.945398808E0,5.093748618E0
2.552873755E1,9.722932577E-1,1.345987320E0,-3.539488792E0,3.909605729E0
2.554802521E1,1.008055329E0,2.159816027E0,5.067481995E-1,2.436754923E0
2.556729943E1,-1.037756443E0,3.916379452E0,4.503778458E0,6.057968871E0
2.558660052E1,-1.635221720E0,5.485543251E0,9.689893723E0,1.125429585E1
2.560588818E1,-3.977847993E-1,5.477984428E0,1.425049305E1,1.527229840E1
2.562516240E1,-6.106537580E-1,4.336954117E0,1.652394485E1,1.709452610E1
2.564448167E1,-2.643260956E0,3.718235493E0,1.786536217E1,1.843863523E1
2.566375115E1,-4.741753101E0,4.164468288E0,1.690208817E1,1.804182926E1
2.568307302E1,-3.628718853E0,5.380760193E0,1.342405510E1,1.491058135E1
2.570232641E1,1.586665630E0,4.883152485E0,9.864348412E0,1.112061399E1
2.572162906E1,2.065523148E0,2.743389130E0,7.852091789E0,8.570175917E0
2.574088828E1,-9.679350853E-1,-3.218345642E-1,9.059131622E0,9.116377656E0
2.576027177E1,1.757037282E0,-3.367757797E0,9.181634903E0,9.936367147E0
2.577947703E1,1.145259094E1,-8.105951309E0,3.951730728E0,1.457684677E1
2.579875125E1,6.796732426E0,-1.125351143E1,-3.483077526E0,1.360032794E1
2.581805234E1,-1.500283360E0,-1.073014832E1,-8.812460899E0,1.396590134E1
2.583734000E1,-3.576345444E-1,-1.076811218E1,-1.299620438E1,1.688139421E1
2.585661422E1,4.223149300E0,-1.179119873E1,-1.045731926E1,1.631633793E1
2.587591531E1,5.082048893E0,-1.053940678E1,-3.672192097E0,1.226341351E1
2.589558865E1,3.971336842E0,-6.951870918E0,-1.099997044E0,8.081461444E0
2.591527563E1,5.827504158E0,-5.345086575E0,-4.983641624E0,9.347001607E0
2.593494891E1,5.609983444E0,-4.132066250E0,-8.359008789E0,1.088204547E1
2.595460849E1,5.097116470E0,-3.035022259E0,-9.732954025E0,1.139834859E1
2.597429547E1,3.858961821E0,-1.958882213E0,-1.046499920E1,1.132453152E1
2.599396875E1,1.456615090E0,-2.201611519E0,-9.114476204E0,9.489072519E0
2.601362833E1,-2.916989565E0,-1.884904146E0,-5.482109547E0,6.489623783E0
2.603331531E1,-8.558931351E0,-1.004922390E-1,-1.377213478E0,8.669609075E0
2.605298859E1,-7.795370102E0,1.306143284E0,8.990097046E-2,7.904548532E0
2.607264812E1,-1.326358318E-1,1.628818274E0,-1.989594936E0,2.574709545E0
2.609233516E1,7.683034897E0,2.004118919E0,-3.594944477E0,8.716027975E0
2.611200844E1,9.097850800E0,2.034168243E0,-4.110794544E0,1.018858976E1
2.613146318E1,3.011066675E0,4.212952614E0,-1.125079155E0,5.299178743E0
2.615076422E1,-1.851857185E0,7.284277916E0,7.991313934E-2,7.516413101E0
2.617005188E1,-3.831053257E0,9.346442223E0,-1.721742630E0,1.024682141E1
2.618932609E1,-5.714933872E0,1.019259739E1,-2.648159027E0,1.198174682E1
2.620862719E1,-8.405306816E0,4.998486519E0,3.911235809E0,1.053241737E1
2.622791479E1,-1.019626904E1,1.194199562E0,7.846289635E0,1.292107874E1
2.624718901E1,1.234467030E-1,-3.333527565E0,3.010167122E0,4.493189426E0
2.626649011E1,8.658493996E0,-1.016826248E1,3.671635628E0,1.385077573E1
2.628582542E1,4.997532845E0,-1.161525345E1,1.751205444E1,2.160003468E1
2.630505193E1,3.354775906E-1,-6.723448277E0,2.668167114E1,2.751779201E1
2.632437099E1,2.287246704E0,-4.416723251E0,1.337189198E1,1.426697013E1
2.634364068E1,5.606382847E0,-4.241923809E0,-8.440976143E0,1.098524121E1
2.636296255E1,2.982016087E0,-1.799874306E0,-2.190223312E1,2.217746115E1
2.638221594E1,-3.575489283E0,7.461650372E-1,-2.261979103E1,2.291278752E1
2.640150641E1,-6.124937534E0,1.845351934E0,-1.592819595E1,1.716471992E1
2.642077776E1,-3.173418522E0,2.036821127E0,-9.024152756E0,9.780314840E0
2.644007886E1,-1.000297666E0,4.088159561E0,-6.130392551E0,7.436084780E0
2.645936651E1,6.836466789E-1,3.654830456E0,-6.723982811E0,7.683560586E0
2.647864068E1,-1.722261429E0,3.591487885E0,-4.489001751E0,6.001342048E0
2.649794177E1,-4.053533554E0,3.328253746E0,-1.599941254E0,5.483449579E0
2.651722943E1,-4.092520714E0,3.443549633E0,-2.383654594E0,5.855644208E0
2.653650359E1,5.408872128E0,-1.073641777E-1,-5.324017525E0,7.590295604E0
2.655580469E1,1.011434937E1,-3.447389603E-2,5.358648300E-1,1.012859332E1
2.657509229E1,3.864855289E0,4.337410927E-1,1.114648914E1,1.180548423E1
2.659436651E1,-8.818528652E-1,-1.115983486E0,1.207050896E1,1.215402279E1
2.661366761E1,1.776432037E0,-6.360959053E0,2.020692825E-1,6.607446016E0
2.663295521E1,3.680850506E0,-1.319023895E1,-4.793690681E0,1.450898116E1
2.665222943E1,-2.309267521E0,-1.779797173E1,7.230804920E0,1.934903237E1
2.667153047E1,-8.419020653E0,-1.839209747E1,1.868881226E1,2.753944193E1
2.669081813E1,-9.329092026E0,-1.422640038E1,1.808665466E1,2.483041487E1
2.671009234E1,-4.173284531E0,-9.190426826E0,1.067802429E1,1.469355137E1
2.672939339E1,-1.479320049E0,-4.951267719E0,5.402416706E0,7.475931119E0
2.674868104E1,-4.727567673E0,-1.897276402E0,1.464971542E0,5.300537281E0
2.676795521E1,-7.979123116E0,1.190013885E-1,-4.319026470E0,9.073839136E0
2.678725630E1,-4.984207630E0,9.699115753E-1,-9.782612801E0,1.102191305E1
2.680654391E1,2.287330866E0,1.539840698E0,-1.120201302E1,1.153638104E1
2.682581812E1,6.577240467E0,3.039282560E0,-1.025618935E1,1.255733851E1
2.684513714E1,8.161428452E0,4.138008595E0,-9.549010277E0,1.322556716E1
2.686440682E1,6.613064766E0,4.514740944E0,-8.678667068E0,1.180825023E1
2.688372896E1,4.508175850E0,4.319795609E0,-1.068099594E1,1.237206361E1
2.690298203E1,4.279199123E0,3.798121452E0,-9.675141335E0,1.124035727E1
2.692227271E1,3.012948990E0,2.608321905E0,-2.187792301E0,4.546167609E0
2.694154386E1,1.573559165E0,7.178716660E-1,3.731050491E0,4.112440388E0
2.696084807E1,3.308880806E0,-1.273361683E0,2.690382957E0,4.450651932E0
2.698013255E1,3.505528212E0,-3.104828596E0,-8.528060913E-1,4.759828451E0
2.699940677E1,2.808693647E-1,-3.353563070E0,-1.082187653E0,3.535025174E0
2.701870781E1,-4.477893829E0,-1.328333616E0,3.429641724E-1,4.683335111E0
2.703799547E1,-9.942710876E0,2.954400539E0,2.284570694E0,1.062098138E1
2.705726964E1,-1.187965107E1,6.040548325E0,8.699243546E0,1.591512400E1
2.707657068E1,-9.554276466E0,3.298753262E0,1.745682907E1,2.017193231E1
2.709585833E1,-3.902585745E0,-2.041957378E0,1.480569935E1,1.544695758E1
2.711513250E1,-9.407892823E-1,-7.021736145E0,1.101215553E1,1.309417552E1
2.713443359E1,1.329755336E-1,-6.319984436E0,1.279641819E1,1.427263831E1
2.715372120E1,-8.691329956E-1,-3.264059305E0,9.591654778E0,1.016903716E1
2.717299537E1,7.173333168E-1,1.141235352E0,-3.137410164E0,3.414722207E0
2.719229646E1,3.638391495E0,5.273639679E0,-1.590479660E1,1.714677005E1
2.721158406E1,4.326361656E0,5.126801491E0,-1.705433655E1,1.832626241E1
2.723085828E1,1.818325281E0,1.859815955E0,-9.985616684E0,1.031880627E1
2.725015932E1,4.134613276E-2,-5.567706823E-1,-6.863299370E0,6.885969891E0
2.726944693E1,-6.968712807E-2,-1.822905302E0,-9.483898163E0,9.657751519E0
2.728873453E1,-4.591843486E-1,-1.379114747E0,-1.069300461E1,1.079134632E1
2.730802219E1,-5.411891341E-1,-1.431501865E0,-8.157039642E0,8.299360156E0
2.732730979E1,1.215563655E0,-2.440688133E0,-6.382339478E0,6.940375406E0
2.734658396E1,3.929599047E0,-2.607967377E0,-6.351133347E0,7.910760854E0
2.736588505E1,5.088772297E0,-1.457959652E0,-5.920874119E0,7.942165962E0
2.738517266E1,1.406303644E0,-9.063732624E-1,-3.792071342E0,4.144756627E0
2.740444682E1,-1.763965845E0,-1.170785546E0,-4.430557728E0,4.910413025E0
2.742374792E1,-5.066871643E-2,-5.415292382E-1,-6.372241974E0,6.395411559E0
2.744308427E1,2.060062408E0,1.669273973E0,-3.465737343E0,4.363675979E0
2.746230969E1,2.140387297E0,3.861590385E0,6.045335770E0,7.485934989E0
2.748161380E1,-1.273051500E0,5.966579914E0,1.301054764E1,1.436993688E1
2.750089833E1,-6.357156277E0,8.576066017E0,1.591206932E1,1.916132288E1
2.752028250E1,-8.652547836E0,1.106885624E1,1.522357273E1,2.071577489E1
2.753995589E1,-5.166176319E0,7.835879326E0,1.332856560E1,1.630156568E1
2.755963370E1,-3.271572113E0,3.628561497E0,1.652890778E1,1.723584738E1
2.757930234E1,-6.211142063E0,1.019335866E0,1.276375866E1,1.423133397E1
2.759897573E1,-8.666158676E0,-2.806604207E-1,9.836321831E0,1.311237216E1
2.761864906E1,-6.020871639E0,-1.558833838E0,-1.170333862E0,6.328549564E0
2.763833912E1,1.775026083E0,-4.185194492E0,-1.502418709E1,1.569690314E1
2.765800927E1,4.234708309E0,-6.169003010E0,-1.563302040E1,1.733149386E1
2.767766880E1,1.936394572E-1,-7.150119781E0,-1.136836243E1,1.343135784E1
2.769735578E1,-2.031058788E0,-6.811561108E0,-1.133251858E1,1.337716494E1
2.771702901E1,1.386165380E0,-6.318026066E0,-1.484194565E1,1.619019019E1
2.773668854E1,5.381853580E0,-4.889077663E0,-1.381729126E1,1.561361477E1
2.775637547E1,3.944947004E0,-2.229441643E0,-6.151682377E0,7.640432774E0
2.777574688E1,1.425997853E0,-5.647318959E-1,-1.105648994E0,1.890727820E0
2.779502104E1,2.376224518E0,8.075671196E-1,-4.734191895E-1,2.553964240E0
2.781432208E1,6.715702534E0,1.857348680E0,-9.841938019E-1,7.036976771E0
2.783360969E1,7.527631760E0,4.130771160E0,-1.524069786E0,8.720739590E0
2.785288386E1,5.879979134E0,4.042964935E0,-6.499509811E-1,7.165344120E0
2.787218490E1,6.631130695E0,8.307950497E-1,8.446884155E-2,6.683505794E0
2.789147250E1,8.443275452E0,-1.279787779E0,2.050303459E0,8.782397246E0
2.791074667E1,4.700134277E0,7.824720144E-1,5.189583778E0,7.045232748E0
2.793004771E1,-4.613468647E-1,2.010884762E0,5.156477928E0,5.553896207E0
2.794933537E1,-2.974561930E0,1.064237475E0,3.979314804E0,5.080902123E0
2.796860953E1,-3.578376055E0,1.175641656E0,6.551369667E0,7.556940717E0
2.798791057E1,-1.100338221E0,7.505514622E-1,1.186252022E1,1.193706235E1
2.800719818E1,1.960166216E0,-1.351049662E0,1.594857216E1,1.612527645E1
2.802647234E1,-1.218594313E0,-9.826953411E-1,1.533023643E1,1.540995819E1
2.804577333E1,-3.600878239E0,9.727212191E-1,7.516991615E0,8.391523914E0
2.806506099E1,-2.083432823E-1,2.356660128E0,6.432714462E-1,2.451744692E0
2.808438307E1,3.375912666E0,2.980916500E-1,2.720077515E0,4.345626151E0
2.810363620E1,-5.946051478E-1,1.942849159E-1,-3.209400177E-2,6.263640597E-1
2.812292740E1,-1.966200829E0,-2.158029079E-1,-8.733301163E0,8.954499751E0
2.814219797E1,2.843094587E0,2.193972111E0,-8.319138527E0,9.061168042E0
2.816150203E1,3.912670851E0,4.110073566E0,-3.654990196E0,6.749863054E0
2.818078662E1,2.482866287E0,1.330360174E0,-7.274928570E0,7.801222269E0
2.820006078E1,4.182088852E0,-1.013943911E0,-1.223057079E1,1.296552395E1
2.821936182E1,2.997806549E0,-3.594169617E-1,-8.853166580E0,9.353853920E0
2.823864943E1,-3.420300484E0,-1.138095856E-1,-5.387554169E-1,3.464341989E0
2.825792359E1,-5.824209690E0,-7.423639297E-2,-1.095098495E0,5.926733525E0
2.827722458E1,-2.697528839E0,-4.070234299E-1,-6.792035103E0,7.319431040E0
2.829651219E1,-3.429541588E-1,-4.977793694E-1,-2.102452755E0,2.187626440E0
2.831578636E1,-1.102913141E0,-1.445020199E0,5.743586540E0,6.024391016E0
2.833508740E1,-7.175416946E-1,-3.260422707E0,4.582800865E0,5.669857677E0
2.835437500E1,2.332642078E0,-3.444555759E0,7.376356125E-1,4.224960324E0
2.837364917E1,4.866056919E0,-1.527817011E0,3.119332314E0,5.978542368E0
2.839295021E1,3.273665428E0,6.823182106E-2,1.044388199E1,1.094514559E1
2.841223781E1,9.937056303E-1,-4.595372677E-1,1.270365715E1,1.275074627E1
2.843151198E1,3.751101494E-1,-1.755264521E0,1.442139816E1,1.453266617E1
2.845081302E1,3.290433288E-1,-1.522065401E0,2.143903732E1,2.149551753E1
2.847010057E1,1.108439565E0,-1.321228743E0,2.167272377E1,2.174123362E1
2.848937474E1,1.037291408E0,-1.505924702E0,1.490850925E1,1.502023405E1
2.850867578E1,-2.962202430E-1,-8.736493587E-1,6.913353920E0,6.974630604E0
2.852796339E1,4.552122355E-1,-3.435008526E-1,-1.349995613E0,1.465503043E0
2.854723755E1,1.779932737E0,-8.207584620E-1,-7.026866913E0,7.295112310E0
2.856653859E1,2.364932299E0,-8.698951006E-1,-9.796078682E0,1.011497799E1
2.858582620E1,1.974541664E0,-1.024168968E0,-1.246578407E1,1.266268176E1
2.860514797E1,9.969968796E-1,-1.369831800E0,-1.587812042E1,1.596825445E1
2.862440136E1,-1.060686469E0,-2.102719545E0,-1.653606606E1,1.670293285E1
2.864373667E1,-3.032679796E0,-2.796168089E0,-1.433555984E1,1.491723764E1
2.866296312E1,-4.367574692E0,-2.729689121E0,-1.436597443E1,1.526132801E1
2.868226708E1,-4.973048687E0,-3.072484970E0,-1.532505512E1,1.640209412E1
2.870155172E1,-4.455664635E0,-3.258815765E0,-1.212919521E1,1.332629746E1
2.872082901E1,-4.042106152E0,-2.366094828E0,-7.894549847E0,9.179376022E0
2.874012693E1,-3.083306789E0,-2.105575800E0,-7.322620392E0,8.219549842E0
2.875941448E1,-2.225291252E0,-1.974339843E0,-7.650679588E0,8.208704961E0
2.877868865E1,-1.823730588E0,-1.178128004E0,-5.641423702E0,6.044802746E0
2.879798969E1,-1.133604407E0,-3.555160165E-1,3.025140762E-1,1.225954875E0
2.881727729E1,-1.221703529E0,1.426350832E0,5.319175720E0,5.640980992E0
2.883655141E1,-1.805033445E0,5.371698380E0,5.704042435E0,8.040484396E0
2.885585245E1,-5.763521791E-1,9.776137352E0,4.783744812E0,1.089904848E1
2.887514005E1,-2.102987528E0,1.128134060E1,9.826299667E0,1.510785780E1
2.889441422E1,-8.292169571E0,8.560420036E0,2.026783943E1,2.351225601E1
2.891371521E1,-1.270422173E1,5.853843689E0,1.751125717E1,2.241224806E1
2.893300281E1,1.191313267E-1,4.229995012E-1,-6.822464943E0,6.836603597E0
2.895227698E1,1.425708961E1,-1.090204239E1,-1.001718235E1,2.055390656E1
2.897157797E1,1.248146534E1,-1.163107109E1,1.466253567E1,2.249574946E1
2.899086557E1,3.743068695E0,-7.216723919E0,1.739308929E1,1.919925057E1
2.901013974E1,-2.584722281E0,-5.926920891E0,-4.156923294E-1,6.479350324E0
2.902944073E1,-3.798781395E0,-3.587804317E0,-8.712668419E0,1.015941292E1
2.904872828E1,-3.472278595E0,-2.912950277E0,-4.257523060E0,6.218400161E0
2.906800250E1,-2.272286415E0,-2.626642942E0,5.016393661E-1,3.509156701E0
2.908730349E1,8.477334976E-1,-1.453575850E0,-2.411643982E0,2.940673652E0
2.910659109E1,6.279317141E-1,-3.574950695E-1,-6.513412476E0,6.553368831E0
2.912586526E1,1.208446026E-1,2.760632038E-1,-6.046677589E0,6.054182371E0
2.914516625E1,-3.496587276E-1,1.469035149E-1,-2.676451206E0,2.703189399E0
2.916450177E1,-1.952580452E0,-5.595726967E-1,-3.610507488E0,4.142638814E0
2.918372797E1,-1.720640182E0,-1.024820089E0,-8.006122589E0,8.252809083E0
2.920311109E1,2.422066927E-1,-1.097900867E0,-7.107235909E0,7.195613432E0
2.922231656E1,1.754597068E0,-1.540697455E0,-1.191962242E0,2.621666170E0
2.924159359E1,1.788392067E0,-1.895281076E0,1.468203545E0,2.990996187E0
2.926089172E1,1.142913938E0,-8.627166748E-1,-1.157718658E0,1.841424672E0
2.928027536E1,1.553265929E0,1.762604117E0,-4.826876640E0,5.368253573E0
2.929996240E1,1.864848614E0,2.974486113E0,4.002847672E-1,3.533476458E0
2.931968422E1,1.042243123E0,2.404399872E0,9.815966606E0,1.015975442E1
2.933929510E1,-1.304779768E0,2.975793839E0,1.104026890E1,1.150848976E1
2.935898521E1,-2.185863733E0,1.714597702E0,1.748477745E1,1.770410371E1
2.937865521E1,-5.194504261E-1,-7.439112663E-1,2.329467010E1,2.331233339E1
2.939836234E1,2.142300606E-1,-1.517912626E0,1.621127701E1,1.628359467E1
2.941800167E1,2.131988525E0,-7.973146439E-2,7.947940826E0,8.229307113E0
2.943767490E1,4.107426643E0,6.616179943E-1,1.219602585E0,4.335449511E0
2.945733438E1,1.857450247E0,6.850246191E-1,-1.823226452E0,2.691381586E0
2.947702130E1,-2.076246977E0,3.224338293E-1,-5.861700058E0,6.226900726E0
2.949669448E1,-4.262193203E0,-4.600383043E-1,-1.335811424E1,1.402915330E1
2.951635396E1,-3.649010420E0,-2.022053242E0,-1.914389610E1,1.959318081E1
2.953573974E1,-2.444650888E0,-2.641819954E0,-1.640049934E1,1.679082813E1
2.955502729E1,-1.518677354E0,-2.842196941E0,-1.135745335E1,1.180577024E1
2.957430146E1,-1.176892877E0,-2.425683737E0,-9.053773880E0,9.446684069E0
2.959360245E1,-4.064478576E-1,-1.881775498E0,-8.708100319E0,8.918368127E0
2.961289005E1,-1.188173890E-2,-8.495529294E-1,-8.706946373E0,8.748302492E0
2.963216417E1,-8.655362725E-1,2.820475996E-1,-8.935499191E0,8.981750925E0
2.965146521E1,-5.045745373E-1,-1.463058591E-1,-8.803437233E0,8.819099046E0
2.967075276E1,1.433555722E0,-1.958836317E0,-8.597591400E0,8.933683429E0
2.969002688E1,1.036220908E0,-2.483676434E0,-5.279834270E0,5.926132999E0
2.970932792E1,-8.685971498E-1,-2.019039392E0,-8.449821472E-1,2.354777252E0
2.972861547E1,-2.569274426E0,-6.060059071E-1,3.183040619E0,4.135234191E0
2.974788964E1,-2.590769291E0,3.237518787E0,4.861101151E0,6.389359734E0
2.976719062E1,-1.731030226E0,5.375319481E0,9.314892769E0,1.089301393E1
2.978647818E1,-2.162467003E0,4.454196453E0,1.952229691E1,2.014041226E1
2.980579787E1,-4.956041336E0,4.676491737E0,3.173680496E1,3.246007871E1
2.982505333E1,-3.393136263E0,3.369413853E0,3.242526245E1,3.277596632E1
2.984438646E1,1.925895572E0,2.057366848E0,2.562713242E1,2.578161647E1
2.986361505E1,2.695893526E0,2.221827269E0,2.005401421E1,2.035602722E1
2.988296162E1,-6.588666439E-1,6.896547079E-1,1.352156448E1,1.355516267E1
2.990220359E1,-1.473440647E0,-2.010433674E0,1.614884377E0,2.969970109E0
2.992152333E1,-2.454424500E-1,-4.024144650E0,-8.205621719E0,9.142549423E0
2.994077875E1,1.423822641E0,-5.880055428E0,-1.034611225E1,1.198517257E1
2.996006761E1,1.445680618E0,-7.075627327E0,-1.491848183E1,1.657454659E1
2.997934047E1,2.642545462E0,-7.940594673E0,-2.137956619E1,2.295913633E1
2.999864146E1,5.156204224E0,-7.650011539E0,-2.533657074E1,2.696388205E1
3.001792901E1,4.246045113E0,-4.872569561E0,-1.979329872E1,2.082175563E1
3.003720312E1,2.309418201E0,-2.097656012E0,-1.210413456E1,1.249974586E1
3.005650417E1,2.988247633E0,-1.044692278E0,-1.077863312E1,1.123387457E1
3.007579172E1,4.733342648E0,1.982336044E-1,-1.278199577E1,1.363170001E1
3.009506583E1,5.669224739E0,1.092815399E0,-1.249498081E1,1.376440700E1
3.011436682E1,5.167377472E0,1.014799595E0,-6.998988152E0,8.758849428E0
3.013365443E1,3.650491476E0,-4.388850927E-2,-1.389807701E0,3.906351196E0
3.015292854E1,1.545051932E0,-1.731348872E0,-2.215305805E0,3.208166798E0
3.017222953E1,1.033021927E0,-2.877130032E0,-6.578262329E0,7.253864266E0
3.019151708E1,-1.009559870E0,-3.388578653E0,-3.537427425E0,5.001506694E0
3.021079125E1,-4.887954235E0,-2.954056740E0,2.221001625E0,6.127919390E0
3.023009224E1,-4.932950020E0,-6.508074403E-1,2.043952942E-1,4.979891932E0
3.024937979E1,-5.814496517E0,5.300662041E0,2.423812866E0,8.232876571E0
3.026865391E1,-1.198376083E1,9.389220238E0,2.280162048E1,2.741681741E1
3.028795490E1,-1.349975491E1,1.123418903E1,4.073006439E1,4.435525370E1
3.030724245E1,-2.768634796E0,1.058748150E1,3.485373306E1,3.653139488E1
3.032651662E1,5.158850670E0,6.056288719E0,2.562067223E1,2.682743407E1
3.034581760E1,1.127044439E0,1.372876167E0,2.525502205E1,2.531740818E1
3.036515182E1,-5.037579060E0,-2.277876616E0,1.138904381E1,1.266002542E1
3.038437927E1,-7.888260365E0,-2.600348949E0,-7.677971840E0,1.131095565E1
3.040369583E1,3.311716080E0,-3.211016178E0,-2.136853409E1,2.186074878E1
3.042296781E1,1.054187393E1,-2.164916277E0,-1.573907280E1,1.906663004E1
3.044224193E1,4.142115116E0,-4.157228947E0,-5.457995415E0,8.014323683E0
3.046154292E1,5.575019121E-2,-6.072756767E0,-8.548666954E0,1.048623810E1
3.048087604E1,8.088965416E-1,-5.856417656E0,-1.867861938E1,1.959190556E1
3.050010464E1,3.693577051E0,-3.800603390E0,-2.084535408E1,2.150850725E1
3.051940562E1,4.551306963E-1,-3.673022509E0,-1.150166321E1,1.208248711E1
3.053869318E1,-2.466698647E0,-4.862463951E0,-4.262681484E0,6.920882265E0
3.055796729E1,-3.842667341E0,-4.811507225E0,-3.465187550E0,7.065707242E0
3.057726828E1,-3.708774567E0,-3.323992014E0,-8.308804512E0,9.687113301E0
3.059655583E1,1.203011394E0,-2.570831776E0,-1.568405533E1,1.593882066E1
3.061582995E1,2.723067284E0,-3.070566893E0,-2.801069260E0,4.968849512E0
3.063513094E1,4.785560369E-1,-5.009685993E0,2.003582001E0,5.416669684E0
3.065441849E1,-1.565454006E-1,-3.492520094E0,-2.532805443E0,4.317094680E0
3.067369261E1,-1.495044947E0,-2.649713993E0,-2.554275990E0,3.972463904E0
3.069299359E1,-3.200168133E0,-2.477928400E0,-1.229122639E0,4.229887433E0
3.071228115E1,-2.390479565E0,2.231379032E0,-6.222991943E-1,3.328768725E0
3.073155526E1,2.061749935E0,7.335862637E0,2.279816628E0,7.953820294E0
3.075085625E1,6.165463924E0,6.740252972E0,9.121686935E0,1.290926520E1
3.077014380E1,5.675763607E0,1.069692612E1,1.608824539E1,2.013628964E1
3.078941792E1,-7.201259136E-1,1.139544678E1,1.728502655E1,2.071586183E1
3.080871891E1,-3.418695450E0,1.033106232E1,1.811841202E1,2.113516457E1
3.082800646E1,2.221832752E0,7.367793560E0,1.997410011E1,2.140527033E1
3.084728057E1,3.710538149E0,4.166529655E0,1.187457848E1,1.311997244E1
3.086658156E1,7.281938791E-1,3.650309086E0,3.498935699E-2,3.722398018E0
3.088591464E1,1.350260973E-1,1.104990005E0,-7.674986362E0,7.755298229E0
3.090514323E1,3.783287764E0,-8.267722130E-1,-5.414711475E0,6.657020276E0
3.092446000E1,1.682281733E0,-3.128331184E0,3.724098206E-3,3.551977153E0
3.094373177E1,-9.439908266E-1,-4.934792995E0,-9.077253342E-1,5.105611214E0
3.096305141E1,8.818292022E-1,-4.484429359E0,-2.520984173E0,5.219491414E0
3.098230688E1,5.488548875E-1,-3.767342567E0,-5.021019459E0,6.301170376E0
3.100163995E1,-5.903716683E-1,-5.035299301E0,-1.079528713E1,1.192648322E1
3.102086849E1,-2.894090414E-1,-5.364021778E0,-1.102401638E1,1.226317350E1
3.104017089E1,-7.749800682E-1,-5.899370193E0,-9.821238518E0,1.148302612E1
3.105945703E1,-3.113637686E0,-6.662125111E0,-8.056694031E0,1.090820651E1
3.107873115E1,-4.814167023E0,-7.787078857E0,-4.842327595E0,1.035678221E1
3.109803214E1,-3.101998806E0,-7.618312836E0,-4.797206402E0,9.522304150E0
3.111731969E1,-1.641877651E0,-5.992428780E0,-7.537899494E0,9.768566614E0
3.113659380E1,-6.510123014E-1,-5.270562172E-1,-1.274414253E1,1.277163945E1
3.115589474E1,-2.489904404E0,7.489218712E-1,-6.647861481E0,7.138246996E0
3.117518229E1,7.637864113E0,8.028268814E-1,-9.634138107E0,1.232063782E1
3.119445641E1,1.013926697E1,4.382156849E0,-5.906846523E0,1.252592788E1
3.121375740E1,-2.705750227E0,3.998173952E0,2.113183975E0,5.269917054E0
3.123304495E1,2.443498373E-1,3.692252398E0,9.683424950E0,1.036634716E1
3.125231906E1,-8.641560674E-1,6.649510384E0,1.679043007E1,1.807985885E1
3.127162000E1,-3.425651789E-1,5.893048286E0,8.697600365E0,1.051159460E1
3.129090755E1,-2.906283617E0,3.769470215E0,4.021284103E0,6.231060584E0
3.131018167E1,-6.558590889E0,1.271083951E0,1.188132858E1,1.363072770E1
3.132948266E1,-5.066532612E0,3.402116895E-1,1.625231934E1,1.702713659E1
3.134877016E1,-6.505599022E-1,-1.671080709E0,1.147680950E1,1.161606195E1
3.136804427E1,-2.675590515E-1,-1.703310251E0,2.670260429E0,3.178544387E0
3.138734526E1,-1.696104527E0,-2.050229788E0,-4.110584736E0,4.896643710E0
3.140663281E1,-3.294162750E-1,-1.645977020E0,-6.552442074E0,6.764041142E0
3.142590688E1,2.917429924E0,-5.946072936E-1,-6.610101700E0,7.249717214E0
3.144525349E1,4.630119324E0,-1.915195584E-1,-5.782261372E0,7.410076333E0
3.146449542E1,3.555844545E0,8.253335953E-3,-5.733616829E0,6.746737025E0
3.148381510E1,1.676792860E0,9.288476110E-1,-5.871217728E0,6.176211605E0
3.150307047E1,-1.238357544E0,2.244997263E0,-4.841043949E0,5.478069791E0
3.152237380E1,-4.092927933E0,1.926595569E0,-2.260660648E0,5.057115395E0
3.154163214E1,-2.834436893E0,1.974168420E-2,-5.714511871E-2,2.835081622E0
3.156101537E1,2.211477757E-1,-6.796445847E-1,1.291689873E0,1.476240437E0
3.158022063E1,6.894233227E-1,-3.120622635E-1,1.172373772E0,1.395402320E0
3.159960401E1,-8.266458511E-1,1.082357168E-1,-3.033237457E-1,8.871660658E-1
3.161879573E1,-1.885972023E-1,-1.351538420E0,4.350509644E-1,1.432303860E0
3.163808323E1,1.473314285E0,-3.725132942E0,6.963529587E-1,4.065978094E0
3.165735734E1,2.922796249E0,-4.209497929E0,8.005514145E-1,5.186857748E0
3.167665833E1,2.222742796E0,-2.211979151E0,4.331118584E0,5.347151156E0
3.169594583E1,-3.424644470E-1,-5.311880708E-1,1.042010021E1,1.043924955E1
3.171521995E1,2.709085464E0,9.099487066E-1,1.067818642E1,1.105399547E1
3.173452089E1,7.225658417E0,2.823125601E0,6.082828522E0,9.858041415E0
3.175380844E1,5.512910843E0,3.500097752E0,6.968509674E0,9.550026037E0
3.177308255E1,2.117279530E0,5.551167488E0,1.210570335E1,1.348504308E1
3.179238349E1,-1.492887020E0,6.165896893E0,1.409908009E1,1.546062920E1
3.181167104E1,-1.816884756E0,5.513206005E0,1.079673100E1,1.225829967E1
3.183094510E1,-9.373850822E-1,3.746872187E0,4.177447319E0,5.689359198E0
3.185024609E1,-3.534858227E-1,1.927769780E0,-1.402014732E0,2.409749751E0
3.186953365E1,8.139836192E-1,5.789422989E-2,-5.474992752E0,5.535473486E0
3.188880771E1,2.378642559E0,-2.712522507E0,-1.006846142E1,1.069530898E1
3.190810870E1,2.996384382E0,-4.653965950E0,-1.211389256E1,1.331856266E1
3.192739620E1,1.828789711E-1,-4.837275505E0,-1.107859039E1,1.208998942E1
3.194667031E1,-5.485094547E0,-1.162735701E0,-9.348020554E0,1.090062864E1
3.196601682E1,-4.530596256E0,-1.879844546E0,-7.270172119E0,8.770149406E0
3.198525880E1,2.767842293E0,-9.990644455E0,-2.490187168E0,1.066184598E1
3.200457844E1,1.450496483E1,-1.322911739E1,-7.642993927E-1,1.964656981E1
3.202383386E1,1.191644001E1,-1.257348919E1,-9.296443939E0,1.966006213E1
3.204316693E1,4.541717529E0,-4.774189949E0,-7.751446724E0,1.017374140E1
3.206239547E1,-1.200092673E0,-1.707143903E0,-2.671839237E0,3.390175163E0
3.208174198E1,-1.360880613E0,-2.604954720E0,4.283256531E-1,2.970058585E0
3.210098396E1,-5.705590248E-1,-3.580275059E0,8.716211319E-1,3.728757232E0
3.212027386E1,-2.206831932E0,-3.747840643E0,9.530429840E-1,4.452494536E0
3.213955901E1,-4.739418983E0,-1.010551453E0,-6.521196365E-1,4.889638694E0
3.215884651E1,-4.601492882E0,3.659297466E0,-1.363973141E0,6.035281055E0
