"Time (s)","Acceleration x (m/s^2)","Acceleration y (m/s^2)","Acceleration z (m/s^2)","Absolute acceleration (m/s^2)"
7.175333340E-3,1.470541992E0,5.581892395E0,5.728886719E0,8.132660050E0
1.719933334E-2,1.654659119E0,5.808820496E0,6.042035522E0,8.543212838E0
2.722433334E-2,1.525926819E0,5.610333252E0,6.617289276E0,8.808678063E0
3.724833333E-2,1.130149841E0,5.479355621E0,7.302414551E0,9.199230129E0
4.727333334E-2,7.827223206E-1,5.629194031E0,7.958649902E0,9.779600602E0
5.729733333E-2,5.786965942E-1,5.898933105E0,8.476273499E0,1.034309015E1
6.732233334E-2,5.233117676E-1,5.988297272E0,8.673413544E0,1.055280351E1
7.734633334E-2,5.751040649E-1,5.950875092E0,8.440048828E0,1.034302099E1
8.737133333E-2,8.116122437E-1,5.903124390E0,8.029452667E0,9.998885044E0
9.739533334E-2,1.086590424E0,5.941594391E0,7.863597565E0,9.915613411E0
1.074203333E-1,1.299597473E0,5.990991669E0,7.812553711E0,9.930605734E0
1.174443333E-1,1.220561829E0,5.898484039E0,7.721393280E0,9.792946407E0
1.274693333E-1,9.325607300E-1,5.578000488E0,7.328610077E0,9.257012727E0
1.374933333E-1,7.544311523E-1,5.335055695E0,6.897356873E0,8.752457795E0
1.475183333E-1,7.467970276E-1,5.194198608E0,6.561156006E0,8.401557779E0
1.575423333E-1,8.622070313E-1,5.034031677E0,6.611002350E0,8.354054582E0
1.675673333E-1,8.556207275E-1,4.846471710E0,6.527925110E0,8.175217496E0
1.775913333E-1,6.357279968E-1,4.813839569E0,6.519392853E0,8.128941177E0
1.876163333E-1,5.131329346E-1,5.015320587E0,6.755601654E0,8.429406842E0
1.976403333E-1,6.273454285E-1,5.088668060E0,7.002138977E0,8.678597535E0
2.076653333E-1,8.707392883E-1,5.097799072E0,7.225474548E0,8.885562714E0
2.176893333E-1,1.108295288E0,5.176385651E0,7.421267395E0,9.115837679E0
2.277143333E-1,1.155746613E0,5.210065613E0,7.540569305E0,9.238004079E0
2.377383333E-1,1.007405090E0,5.317691803E0,7.475454712E0,9.229037560E0
2.477633333E-1,8.741821289E-1,5.546715546E0,7.184459839E0,9.118481832E0
2.577883333E-1,7.577243042E-1,5.649551697E0,6.818021851E0,8.886900610E0
2.678123333E-1,5.854325867E-1,5.649551697E0,6.792574768E0,8.854334400E0
2.778373333E-1,5.054988098E-1,5.605094147E0,6.952292633E0,8.944662224E0
2.878613333E-1,2.881507874E-1,5.691614227E0,7.156018982E0,9.148011317E0
2.978863333E-1,4.026626587E-1,5.744005280E0,7.765850830E0,9.667687054E0
3.079103333E-1,7.685018921E-1,5.671705627E0,8.128845978E0,9.941678772E0
3.179353333E-1,5.008584595E-1,5.761818237E0,7.984246674E0,9.858884498E0
3.279593333E-1,4.980143738E-1,5.634882202E0,7.569608917E0,9.449809252E0
3.379843333E-1,5.644761658E-1,5.472769318E0,7.221582642E0,9.078606347E0
3.480083333E-1,6.435118103E-1,4.908293152E0,7.395670624E0,8.899516453E0
3.580333333E-1,9.373507690E-1,4.298311615E0,8.423134003E0,9.502804619E0
3.680573333E-1,1.326990509E0,4.690046997E0,9.967322845E0,1.109526788E1
3.780823333E-1,1.870959320E0,5.438939667E0,1.133936966E1,1.271471029E1
3.881063333E-1,2.079176331E0,6.042035522E0,1.213286957E1,1.371261067E1
3.981313333E-1,1.905687103E0,5.874384155E0,1.093850327E1,1.256148424E1
4.081553333E-1,2.577639771E0,5.310207367E0,1.112202164E1,1.259134204E1
4.181803333E-1,3.025209045E0,4.848866730E0,1.039812698E1,1.186526203E1
4.282043333E-1,2.984344025E0,4.540358276E0,9.529034271E0,1.096921404E1
4.382293333E-1,2.489323425E0,4.145778809E0,8.429271240E0,9.717861220E0
4.482533333E-1,1.530118103E0,4.278552704E0,8.369994507E0,9.523869103E0
4.582783333E-1,5.086422729E-1,5.021158447E0,9.138346710E0,1.043935485E1
4.683023333E-1,-3.427871704E-1,6.100114746E0,9.660011902E0,1.142999269E1
4.783273333E-1,-6.809339905E-1,6.560108185E0,9.081165619E0,1.122346914E1
4.883513333E-1,-9.096583557E-1,6.711742859E0,8.566835175E0,1.092088071E1
4.983763333E-1,-7.090754700E-1,6.582262115E0,8.217461700E0,1.055251815E1
5.084003333E-1,-4.490661621E-3,6.504274292E0,7.606132965E0,1.000793999E1
5.184253333E-1,9.958790588E-1,6.789730682E0,7.016060028E0,9.814138585E0
5.284493333E-1,2.292033691E0,6.835984497E0,6.444997559E0,9.670682293E0
5.384743333E-1,2.729424133E0,6.856940918E0,7.385491791E0,1.044092351E1
5.484983333E-1,2.059118042E0,7.046297150E0,6.932384033E0,1.009694107E1
5.585233333E-1,1.247356110E0,6.929689636E0,7.488627319E0,1.027891214E1
5.685473333E-1,7.629634094E-1,6.412066040E0,9.317673798E0,1.133647869E1
5.785723333E-1,9.372010803E-1,5.859714661E0,9.008566589E0,1.078744056E1
5.885963333E-1,1.409768372E0,5.315296783E0,8.013585663E0,9.718918764E0
5.986213333E-1,1.917662201E0,4.825964355E0,7.664511566E0,9.258082837E0
6.086460833E-1,2.147584076E0,4.797822876E0,7.674241333E0,9.301892375E0
6.186710833E-1,2.037263489E0,5.166805573E0,7.601043549E0,9.413935701E0
6.286950833E-1,2.170037384E0,5.175188141E0,7.573351135E0,9.425883617E0
6.387200833E-1,2.115401001E0,4.946912842E0,8.047415314E0,9.680276922E0
6.487440833E-1,1.960622864E0,4.593048706E0,7.578889618E0,9.076326695E0
6.587690833E-1,1.640139313E0,4.269571381E0,7.635771332E0,8.900803367E0
6.687930833E-1,1.312620392E0,4.481829987E0,7.905360718E0,9.181748221E0
6.788180833E-1,9.556127930E-1,4.994962921E0,7.538623352E0,9.093607229E0
6.888430833E-1,6.349795532E-1,5.366041260E0,7.539371796E0,9.275760072E0
6.988670833E-1,3.802093506E-1,5.568121033E0,7.853418732E0,9.634558462E0
7.088920833E-1,3.785627747E-1,5.623505859E0,7.807164917E0,9.629068074E0
7.189160833E-1,8.099656677E-1,5.662125549E0,7.573650513E0,9.490832008E0
7.289410833E-1,1.364562378E0,5.688470764E0,7.433092804E0,9.458942792E0
7.389650833E-1,1.854194183E0,5.538632355E0,7.307503967E0,9.354897042E0
7.489900833E-1,2.176174622E0,5.298681335E0,7.209008789E0,9.207690677E0
7.590140833E-1,2.194286957E0,5.036127319E0,7.198680267E0,9.055300725E0
7.690390833E-1,2.074835358E0,4.919819183E0,7.342231750E0,9.078432113E0
7.790630833E-1,2.098785553E0,4.874164124E0,7.737260284E0,9.382301072E0
7.890880833E-1,2.411485291E0,4.603826294E0,8.125552826E0,9.645469744E0
7.991120833E-1,2.752925262E0,4.297862549E0,8.252788239E0,9.703542327E0
8.091370833E-1,3.177143097E0,3.995491333E0,8.334667969E0,9.773683001E0
8.191610833E-1,3.111130371E0,3.896247711E0,8.591234436E0,9.933236509E0
8.291860833E-1,2.799029388E0,3.883524170E0,8.617579651E0,9.857941191E0
8.392100833E-1,2.742147675E0,3.790417786E0,8.225095825E0,9.462496615E0
8.492350833E-1,2.788850555E0,3.586092682E0,7.799979858E0,9.026485137E0
8.592590833E-1,2.885998535E0,3.325334930E0,7.206314392E0,8.444987097E0
8.692840833E-1,2.970123596E0,3.233426056E0,6.462211761E0,7.812608981E0
8.793080833E-1,2.844235382E0,3.707041168E0,6.002218323E0,7.606474474E0
8.893330833E-1,2.728076935E0,4.132007446E0,5.797743530E0,7.624284841E0
8.993570833E-1,2.480342102E0,4.152365112E0,6.118825836E0,7.799632208E0
9.093820833E-1,2.436632996E0,3.685935059E0,6.470444641E0,7.835173991E0
9.194060833E-1,2.584525452E0,2.650987244E0,6.924001465E0,7.851706914E0
9.294310833E-1,2.232906647E0,1.681453400E0,7.246730347E0,7.767126775E0
9.394550833E-1,1.498833160E0,1.130000153E0,7.326664124E0,7.563293487E0
9.494800833E-1,1.173709259E0,1.052910461E0,7.549999695E0,7.712892405E0
9.595040833E-1,1.235979767E0,1.428629150E0,8.132737885E0,8.349254621E0
9.695290833E-1,1.131946106E0,2.292931824E0,8.333320770E0,8.716827026E0
9.795530833E-1,1.046773224E0,2.549348602E0,8.910221100E0,9.326679609E0
9.895780833E-1,1.255139923E0,2.963537292E0,9.112600250E0,9.664233691E0
9.996020833E-1,1.206042023E0,4.044738922E0,9.384285278E0,1.028976484E1
1.009627083E0,1.077459412E0,3.770658875E0,8.923393707E0,9.747088919E0
1.019651083E0,8.882528687E-1,3.508553925E0,8.492888947E0,9.231906978E0
1.029676083E0,5.174739075E-1,3.210523682E0,8.835975494E0,9.415397203E0
1.039700083E0,2.570155334E-1,2.889890442E0,8.913364563E0,9.373664789E0
1.049725083E0,-5.089416504E-3,3.139271851E0,8.476872253E0,9.039492068E0
1.059749083E0,-2.206411743E-1,3.817661133E0,7.992180176E0,8.859918906E0
1.069774083E0,-3.095562744E-1,4.227059784E0,6.788832550E0,8.003256018E0
1.079798083E0,5.613327026E-2,4.449347534E0,6.001320190E0,7.470989791E0
1.089823083E0,5.769003296E-1,4.628674622E0,5.986351318E0,7.589060867E0
1.099847083E0,5.104385376E-1,4.655169525E0,6.983727264E0,8.408543115E0
1.109872083E0,4.266128540E-2,5.457351379E0,8.409811707E0,1.002543949E1
1.119896083E0,-5.785469055E-1,6.612499237E0,8.825048218E0,1.104270523E1
1.129921083E0,-5.974076843E-1,7.371121674E0,8.581354980E0,1.132828248E1
1.139945083E0,6.197113037E-2,6.949149170E0,8.968300323E0,1.134570074E1
1.149970083E0,1.282832336E-1,6.177204437E0,1.040381516E1,1.210015211E1
1.159994083E0,8.307723999E-2,5.215454407E0,1.145298340E1,1.258485976E1
1.170019083E0,6.472540283E-1,4.333189087E0,1.266067200E1,1.339731618E1
1.180044083E0,1.071920929E0,4.318369904E0,1.365056351E1,1.435740983E1
1.190068083E0,9.550140381E-1,4.721631317E0,1.359607681E1,1.442425592E1
1.200093083E0,6.402186584E-1,4.988975372E0,1.279284714E1,1.374615194E1
1.210117083E0,3.655398560E-1,5.053042145E0,1.213047455E1,1.314592207E1
1.220142083E0,2.210902405E-1,4.976102142E0,1.150522476E1,1.253717154E1
1.230166083E0,6.637197876E-1,4.863087158E0,1.025667114E1,1.137055160E1
1.240191083E0,1.096320190E0,4.475243683E0,1.025517426E1,1.124270088E1
1.250215083E0,7.680528259E-1,3.988006897E0,1.011491592E1,1.089979946E1
1.260240083E0,1.051263885E0,3.655398560E0,1.044378204E1,1.111484043E1
1.270264083E0,1.666185150E0,3.838916931E0,1.008213409E1,1.091617534E1
1.280289083E0,2.438878326E0,4.070335693E0,9.670340424E0,1.077177999E1
1.290313083E0,2.791544952E0,3.794758759E0,9.502539368E0,1.060618554E1
1.300338083E0,2.806364136E0,3.489244080E0,8.734636230E0,9.815517001E0
1.310362083E0,2.723137207E0,3.476969604E0,7.940238190E0,9.085822824E0
1.320387083E0,2.757565613E0,3.417842560E0,7.531587982E0,8.718407733E0
1.330411083E0,3.036884766E0,3.114573212E0,7.466323700E0,8.641135629E0
1.340436083E0,3.350482635E0,2.987038422E0,7.077881470E0,8.381201496E0
1.350460083E0,3.929628296E0,3.284769287E0,6.217919769E0,8.055694512E0
1.360485083E0,4.630770264E0,3.739074554E0,5.542374573E0,8.132811793E0
1.370509083E0,4.988077240E0,3.704197083E0,5.289400635E0,8.159641515E0
1.380534083E0,5.039719849E0,3.177592163E0,4.980742493E0,7.765543374E0
1.390558083E0,4.713697815E0,2.267335052E0,4.970114594E0,7.215385950E0
1.400583083E0,4.113895111E0,1.346450043E0,5.602100372E0,7.079589627E0
1.410607083E0,2.973117371E0,9.879455566E-1,6.084397430E0,6.843636125E0
1.420632083E0,1.344653778E0,9.776170349E-1,6.175707550E0,6.395560382E0
1.430656083E0,5.108876038E-1,5.385800171E-1,5.805527344E0,5.852796111E0
1.440681083E0,3.290158081E-1,-3.924838257E-1,6.212980042E0,6.234052931E0
1.450705083E0,1.610650635E-1,-1.119971008E0,7.151378632E0,7.240337930E0
1.460730083E0,8.146060181E-1,-1.634451141E0,7.419022064E0,7.640477857E0
1.470754083E0,1.940414886E0,-2.593656464E0,7.974666595E0,8.607413728E0
1.480779083E0,3.439846802E0,-3.535048828E0,8.875643005E0,1.015412010E1
1.490803083E0,5.115312653E0,-3.742068329E0,1.032747391E1,1.211718681E1
1.500828083E0,6.083648987E0,-3.071612549E0,1.207733505E1,1.386750196E1
1.510852083E0,6.862928467E0,-2.333347778E0,1.351464615E1,1.533590426E1
1.520877083E0,7.710466003E0,-1.756746826E0,1.359188553E1,1.572503729E1
1.530901083E0,8.346643066E0,-1.752854919E0,1.398646500E1,1.638170180E1
1.540926083E0,8.551117859E0,-1.826651459E0,1.394515091E1,1.645981489E1
1.550950083E0,8.636590118E0,-1.530866547E0,1.333292404E1,1.595935791E1
1.560975083E0,8.509803772E0,-8.336164856E-1,1.295496002E1,1.552232798E1
1.570999083E0,8.268954620E0,1.916015625E-2,1.271216492E1,1.516493042E1
1.581024083E0,8.140970764E0,5.742059326E-1,1.244077927E1,1.487878040E1
1.591048083E0,8.250393219E0,5.734574890E-1,1.244571899E1,1.494301720E1
1.601073167E0,8.200247498E0,3.013233948E-1,1.242940292E1,1.489378769E1
1.611097167E0,8.055947571E0,2.188449097E-1,1.214259933E1,1.457356864E1
1.621122167E0,7.928712158E0,2.246827698E-1,1.181912201E1,1.423399466E1
1.631146167E0,7.714357910E0,5.276527405E-1,1.144490021E1,1.381214958E1
1.641171167E0,7.354805603E0,1.240021362E0,1.070139633E1,1.304418268E1
1.651195167E0,7.654931488E0,1.641935577E0,1.037327866E1,1.299610859E1
1.661220167E0,8.156538391E0,1.414259033E0,1.011341904E1,1.306944879E1
1.671244167E0,8.384963379E0,1.111139374E0,9.602381744E0,1.279640484E1
1.681269167E0,8.447682953E0,9.451345825E-1,9.301956482E0,1.260091350E1
1.691294167E0,8.339607697E0,9.412426758E-1,9.079069977E0,1.236383864E1
1.701318167E0,7.961493988E0,1.242715759E0,8.631201324E0,1.180793654E1
1.711343167E0,7.351512451E0,1.461710358E0,7.696844330E0,1.074349781E1
1.721367167E0,7.066804504E0,1.329385529E0,6.905140686E0,9.969351016E0
1.731392167E0,6.821614380E0,1.406325531E0,6.500831451E0,9.527485702E0
1.741416167E0,6.458469543E0,1.558708649E0,6.242169342E0,9.116253594E0
1.751441167E0,6.255641327E0,1.623972931E0,6.209088135E0,8.962316216E0
1.761465167E0,5.961652679E0,1.734443207E0,6.215524750E0,8.785348247E0
1.771490167E0,5.485043793E0,1.700014801E0,6.107748871E0,8.383337760E0
1.781514167E0,5.355862427E0,1.529369659E0,6.318211212E0,8.422827721E0
1.791539167E0,5.524112549E0,1.703307953E0,6.530320129E0,8.721362189E0
1.801563167E0,5.663472748E0,2.019300842E0,6.598129120E0,8.926802750E0
1.811588167E0,5.990841980E0,1.902543640E0,6.514752502E0,9.052726667E0
1.821612167E0,5.838009796E0,2.102527771E0,5.866300964E0,8.539114030E0
1.831637167E0,5.338648224E0,2.241588593E0,4.961582336E0,7.625167772E0
1.841661167E0,4.724325714E0,2.272274780E0,4.088298340E0,6.648057569E0
1.851686167E0,4.117487640E0,2.506837006E0,3.861370239E0,6.176416143E0
1.861710167E0,3.613186340E0,2.724634094E0,3.795956268E0,5.906609050E0
1.871735167E0,3.653901672E0,2.480342102E0,4.054169312E0,5.994946470E0
1.881759167E0,4.428690491E0,1.882036285E0,4.953648834E0,6.906084043E0
1.891784167E0,5.048551483E0,2.095642090E0,5.195545807E0,7.541437799E0
1.901808167E0,5.263654175E0,2.637964325E0,5.172344055E0,7.836967148E0
1.911833167E0,5.463189240E0,2.892884216E0,5.629343719E0,8.360904644E0
1.921857167E0,5.369633789E0,3.257675629E0,5.662574615E0,8.456368535E0
1.931882167E0,5.158722382E0,3.476520538E0,5.225633240E0,8.124398711E0
1.941906167E0,4.950804749E0,3.456312561E0,4.766537933E0,7.692622963E0
1.951931167E0,4.709057465E0,3.901786194E0,4.854255524E0,7.807877714E0
1.961955167E0,5.013674011E0,3.896846466E0,5.037624207E0,8.105553474E0
1.971980167E0,5.405259705E0,3.091371460E0,5.701194305E0,8.442572267E0
1.982004167E0,6.440955963E0,2.108215942E0,7.453151093E0,1.007372570E1
1.992029167E0,7.916886749E0,1.929038544E0,8.938512268E0,1.209525887E1
2.002053167E0,8.903335419E0,2.392474823E0,9.573491821E0,1.329078865E1
2.012078167E0,8.915310516E0,2.911744995E0,1.005519012E1,1.375019523E1
2.022102167E0,8.301736450E0,2.847977600E0,1.064571213E1,1.379713707E1
2.032127167E0,7.679630127E0,2.267335052E0,1.117276611E1,1.374584409E1
2.042151167E0,7.115902405E0,1.379531250E0,1.179337555E1,1.384279164E1
2.052176167E0,6.514153748E0,7.325765991E-1,1.223735229E1,1.388249469E1
2.062200167E0,6.009403381E0,4.993615723E-1,1.227537323E1,1.367651560E1
2.072225167E0,5.821843414E0,3.854484558E-1,1.259944931E1,1.388483180E1
2.082249167E0,6.079457703E0,3.571572876E-1,1.291454407E1,1.427840382E1
2.092274167E0,6.372548218E0,6.349795532E-1,1.261651382E1,1.414881588E1
2.102299167E0,6.504573669E0,7.078779602E-1,1.231099915E1,1.394170972E1
2.112323167E0,6.662794647E0,7.201524353E-1,1.180729660E1,1.357658665E1
2.122348167E0,6.793622589E0,8.225395203E-1,1.114567245E1,1.307883380E1
2.132372167E0,6.941814423E0,8.258326721E-1,1.054332504E1,1.265039486E1
2.142397167E0,7.034471741E0,9.470805359E-1,1.004665787E1,1.230106046E1
2.152421167E0,7.115453339E0,1.099912720E0,9.850865021E0,1.220159932E1
2.162446167E0,7.246430969E0,1.171164551E0,9.841883698E0,1.227782810E1
2.172470167E0,7.403604126E0,1.141975250E0,9.626182251E0,1.219757543E1
2.182495167E0,7.436535645E0,1.104553070E0,9.224717102E0,1.190031535E1
2.192519167E0,7.340585175E0,1.015787659E0,8.816366272E0,1.151713200E1
2.202544167E0,7.253017273E0,9.304650879E-1,8.356223145E0,1.110398532E1
2.212568167E0,7.131769409E0,9.403445435E-1,7.876021729E0,1.066668182E1
2.222593167E0,6.895560608E0,1.051413574E0,7.541168060E0,1.027246038E1
2.232617167E0,6.541097717E0,1.197958832E0,6.982380066E0,9.642338725E0
2.242642167E0,6.393205261E0,1.278042297E0,6.498137054E0,9.205012265E0
2.252666167E0,6.487658844E0,1.425785065E0,6.448440399E0,9.257697549E0
2.262691167E0,6.456224213E0,1.777403870E0,6.311026154E0,9.201687167E0
2.272715167E0,6.378984833E0,2.053130493E0,5.922284546E0,8.943167591E0
2.282740167E0,6.441554718E0,2.161654816E0,5.836662598E0,8.957288039E0
2.292764167E0,6.511758728E0,2.337988129E0,6.052663422E0,9.192601629E0
2.302789167E0,6.404282227E0,2.460882568E0,5.943989410E0,9.077542837E0
2.312813167E0,6.327042847E0,2.491568756E0,5.792354736E0,8.932567349E0
2.322838167E0,6.447691956E0,2.494861908E0,5.799240417E0,9.023760686E0
2.332862167E0,6.622079315E0,2.612966309E0,5.746549988E0,9.148899614E0
2.342887167E0,6.692433014E0,2.726580048E0,5.636079712E0,9.164512694E0
2.352911167E0,6.564898224E0,2.802322540E0,5.410798187E0,8.956988184E0
2.362936167E0,6.490951996E0,2.822680206E0,5.269941101E0,8.824526082E0
2.372960167E0,6.334676971E0,2.971021729E0,5.046455841E0,8.626808158E0
2.382985167E0,6.148464203E0,3.121907959E0,4.836442566E0,8.422653860E0
2.393009167E0,5.985303497E0,3.058439941E0,4.736001434E0,8.222385446E0
2.403034167E0,5.890999603E0,2.949616241E0,4.784350891E0,8.142120470E0
2.413058167E0,5.963898010E0,2.902763672E0,4.877606964E0,8.233174728E0
2.423083167E0,5.909411316E0,3.050656128E0,4.832999725E0,8.221041981E0
2.433107167E0,5.735323334E0,3.320544891E0,4.791386261E0,8.177856346E0
2.443132167E0,5.681734772E0,3.594924316E0,5.062771912E0,8.416486814E0
2.453157167E0,5.615871735E0,3.890559540E0,5.293891296E0,8.642901939E0
2.463181167E0,5.429958344E0,3.971690826E0,5.410648499E0,8.633301385E0
2.473206167E0,5.180427246E0,3.943549347E0,5.626948700E0,8.605286722E0
2.483230167E0,5.082979889E0,3.968846741E0,5.969137115E0,8.787435741E0
2.493255167E0,5.135520630E0,3.944746857E0,6.397695923E0,9.103027684E0
2.503279167E0,5.212610321E0,3.808380432E0,6.888525238E0,9.440701660E0
2.513304167E0,5.163811798E0,3.573818207E0,7.477999420E0,9.765121822E0
2.523328167E0,4.971162415E0,3.480861511E0,8.012537842E0,1.005134893E1
2.533353167E0,4.694986725E0,3.612587585E0,8.425379333E0,1.029954884E1
2.543377167E0,4.444707184E0,3.711831207E0,8.797355804E0,1.053216891E1
2.553402167E0,4.251758423E0,3.476670227E0,8.999285889E0,1.054285692E1
2.563426167E0,4.173620911E0,3.137325897E0,9.326954498E0,1.068896653E1
2.573451167E0,4.165986786E0,3.130440216E0,9.717791748E0,1.102681179E1
2.583475167E0,4.161496124E0,3.159180450E0,9.923164673E0,1.121461851E1
2.593500167E0,4.151616669E0,2.891387329E0,1.004905289E1,1.125075578E1
2.603523833E0,4.088448029E0,2.626737671E0,9.845476227E0,1.097946083E1
2.613548833E0,3.971840515E0,2.596650238E0,9.408085785E0,1.053708630E1
2.623572833E0,3.983216858E0,2.651136932E0,9.389075317E0,1.053799217E1
2.633597833E0,4.016447754E0,2.685565338E0,9.461973724E0,1.062417340E1
2.643621833E0,3.868255920E0,2.764600983E0,9.076824646E0,1.024671499E1
2.653646833E0,3.687431946E0,2.937042389E0,8.765322418E0,9.952600135E0
2.663670833E0,3.558400269E0,3.280578003E0,8.986562347E0,1.020699306E1
2.673695833E0,3.456462250E0,3.518882446E0,9.513616333E0,1.071627550E1
2.683719833E0,3.415447540E0,3.452270966E0,9.808203735E0,1.094460220E1
2.693744833E0,3.384012909E0,3.172652435E0,1.007734406E1,1.109369776E1
2.703768833E0,3.358416138E0,2.891836395E0,1.038794815E1,1.129385423E1
2.713793833E0,3.288810883E0,2.685565338E0,1.038705002E1,1.122137898E1
2.723817833E0,3.141816559E0,2.555036774E0,9.960586853E0,1.075232601E1
2.733842833E0,2.939138031E0,2.528841248E0,9.379046173E0,1.014889539E1
2.743866833E0,2.719993744E0,2.649490356E0,8.781339111E0,9.567135501E0
2.753891833E0,2.611319733E0,2.683170319E0,8.347092133E0,9.148351806E0
2.763915833E0,2.578986969E0,2.607876892E0,8.378676453E0,9.146278739E0
2.773940833E0,2.538121948E0,2.659669189E0,8.690627747E0,9.436255288E0
2.783965833E0,2.351160736E0,2.749332733E0,8.942553864E0,9.646556737E0
2.793989833E0,2.132914581E0,2.813848572E0,8.981173553E0,9.650313300E0
2.804014833E0,1.961520996E0,2.878364410E0,8.739276581E0,9.407842550E0
2.814038833E0,1.827250214E0,2.918181610E0,8.752598877E0,9.405456627E0
2.824063833E0,1.637594604E0,2.974314880E0,8.767268372E0,9.401768972E0
2.834087833E0,1.574425964E0,3.163371735E0,8.785380707E0,9.469353305E0
2.844112833E0,1.578317871E0,3.165018311E0,8.556506653E0,9.258630261E0
2.854136833E0,1.432521057E0,2.973416748E0,8.265212402E0,8.899834818E0
2.864161833E0,1.176553345E0,3.011437683E0,7.911497955E0,8.546627088E0
2.874185833E0,1.127754822E0,3.285817108E0,7.753276978E0,8.495983104E0
2.884210833E0,1.030157776E0,3.464395752E0,7.712711334E0,8.517580589E0
2.894234833E0,8.448431396E-1,3.379372559E0,7.533533936E0,8.299882673E0
2.904259833E0,9.075627136E-1,3.286565552E0,7.301217041E0,8.058098627E0
2.914283833E0,7.194039917E-1,3.379671936E0,7.182064819E0,7.970055180E0
2.924308833E0,4.713697815E-1,3.509002991E0,7.088808746E0,7.923793340E0
2.934332833E0,3.270698547E-1,3.626957703E0,6.970105591E0,7.864106358E0
2.944357833E0,2.978805542E-1,3.799698486E0,6.903344421E0,7.885594817E0
2.954381833E0,2.612068176E-1,3.995042267E0,6.833140411E0,7.919621178E0
2.964406833E0,2.173480225E-1,4.223616943E0,6.544390869E0,7.791997953E0
2.974430833E0,2.603086853E-1,4.516108704E0,6.370602264E0,7.813294545E0
2.984455833E0,2.850073242E-1,4.757556610E0,6.714287567E0,8.233907433E0
2.994479833E0,4.086502075E-1,4.875661011E0,7.284152527E0,8.774847196E0
3.004504833E0,4.324507141E-1,4.959935760E0,7.910150757E0,9.346574847E0
3.014528833E0,5.170248413E-1,4.930447083E0,8.573720856E0,9.903802928E0
3.024553833E0,6.797364807E-1,4.936135254E0,8.897048492E0,1.019730086E1
3.034577833E0,5.975573730E-1,5.152435455E0,8.822952576E0,1.023470362E1
3.044602833E0,4.505630493E-1,5.195246429E0,8.373886414E0,9.864865239E0
3.054626833E0,5.881269836E-1,4.892725525E0,6.623725891E0,8.255810141E0
3.064651833E0,1.989363098E-1,5.551505585E0,7.835605774E0,9.604973074E0
3.074675833E0,-2.974314880E-1,6.023623810E0,9.035660248E0,1.086350153E1
3.084700833E0,2.439926147E-2,5.844296722E0,8.803193665E0,1.056658025E1
3.094725833E0,7.500901794E-1,5.368436279E0,8.986113281E0,1.049442591E1
3.104749833E0,1.282233582E0,4.778962097E0,9.223369904E0,1.046676426E1
3.114774833E0,1.481020203E0,4.368964691E0,9.169032898E0,1.026413355E1
3.124798833E0,1.369651794E0,4.372108154E0,9.122030640E0,1.020797329E1
3.134823833E0,9.732760620E-1,4.482129364E0,9.290580139E0,1.036106313E1
3.144847833E0,5.066963196E-1,4.345014496E0,9.370813293E0,1.034156825E1
3.154872833E0,-2.249821472E-1,4.255201263E0,9.268426208E0,1.020103324E1
3.164896833E0,-7.679031372E-1,4.531077576E0,9.256750488E0,1.033478441E1
3.174921833E0,-1.038839722E0,4.940925293E0,9.352401581E0,1.062823344E1
3.184945833E0,-1.076411591E0,5.175337830E0,9.481433258E0,1.085542999E1
3.194970833E0,-8.469387817E-1,5.113067322E0,9.848470001E0,1.112893185E1
3.204994833E0,-5.716612244E-1,4.910239105E0,1.004501129E1,1.119551234E1
3.215019833E0,-1.034349060E-1,4.632267151E0,9.895472260E0,1.092652593E1
3.225043833E0,3.215313721E-1,4.337979126E0,9.593999176E0,1.053405266E1
3.235068833E0,5.370831299E-1,4.097728729E0,9.365125122E0,1.023647437E1
3.245092833E0,5.399272156E-1,4.082161102E0,9.357790375E0,1.022368825E1
3.255117833E0,3.947291565E-1,4.035308533E0,9.443112946E0,1.027676545E1
3.265141833E0,2.924917603E-1,3.878883820E0,9.237590332E0,1.002319142E1
3.275166833E0,2.746788025E-1,3.941753082E0,9.155710602E0,9.971955798E0
3.285190833E0,1.468446350E-1,4.280798035E0,9.195228424E0,1.014391546E1
3.295215833E0,1.152603149E-1,4.555776215E0,8.919651489E0,1.001641476E1
3.305239833E0,2.561174011E-1,4.607718201E0,8.445737000E0,9.624299279E0
3.315264833E0,2.827619934E-1,4.516857147E0,8.099057922E0,9.277752533E0
3.325288833E0,2.047741699E-1,4.358037415E0,7.833510132E0,8.966510110E0
3.335313833E0,2.158511353E-1,4.270319824E0,7.929610291E0,9.008936811E0
3.345337833E0,2.378553772E-1,4.253105621E0,8.044720917E0,9.102912569E0
3.355362833E0,2.365081787E-1,4.188889160E0,7.885601807E0,8.932269833E0
3.365387833E0,5.493576050E-2,4.147126007E0,7.714357910E0,8.758595208E0
3.375411833E0,-1.628613281E-1,4.096381531E0,7.656428375E0,8.684915712E0
3.385436833E0,-4.029620361E-1,4.071084137E0,7.737409973E0,8.752349259E0
3.395460833E0,-5.065466309E-1,4.127217407E0,7.988587646E0,9.006000533E0
3.405485833E0,-5.279521179E-1,4.073179779E0,7.993377686E0,8.986857837E0
3.415509833E0,-5.935157776E-1,4.116439819E0,8.175997925E0,9.173019123E0
3.425534833E0,-4.857398987E-1,4.190685425E0,8.510402527E0,9.498670367E0
3.435558833E0,-3.429368591E-1,4.178860016E0,7.423363037E0,8.525655136E0
3.445583833E0,-2.568658447E-1,4.061054993E0,7.031627655E0,8.124157507E0
3.455607833E0,-4.144880676E-1,4.278702393E0,7.223977661E0,8.406244570E0
3.465632833E0,-6.581813049E-1,4.600233765E0,7.264243927E0,8.623490775E0
3.475656833E0,-7.241940308E-1,4.655618591E0,7.248676300E0,8.645377352E0
3.485681833E0,-7.463479614E-1,4.723277893E0,7.001689911E0,8.478800089E0
3.495705833E0,-6.727011108E-1,4.849465485E0,6.953190765E0,8.503922865E0
3.505730833E0,-5.423222351E-1,4.843028870E0,7.206913147E0,8.699921790E0
3.515754833E0,-4.941224670E-1,4.864134979E0,7.755821686E0,9.168246077E0
3.525779833E0,-5.313949585E-1,4.857548676E0,8.370144196E0,9.692134625E0
3.535803833E0,-4.986131287E-1,4.817881165E0,8.807684326E0,1.005166141E1
3.545828833E0,-4.197271729E-1,4.757706299E0,8.960516510E0,1.015395471E1
3.555852833E0,-2.282752991E-1,4.687053223E0,9.159303131E0,1.029142417E1
3.565877833E0,-1.666035461E-1,4.517306213E0,9.220226440E0,1.026870916E1
3.575902833E0,-1.082249451E-1,4.565955048E0,9.247619476E0,1.031397712E1
3.585926833E0,-1.378633118E-1,4.811893616E0,9.410031738E0,1.056986394E1
3.595951833E0,-2.880010986E-1,4.855153656E0,9.590107269E0,1.075293537E1
3.605976292E0,-5.593867493E-1,4.686454468E0,9.818831635E0,1.089427481E1
3.616001292E0,-6.866221619E-1,4.702471161E0,9.952952728E0,1.102932242E1
3.626025292E0,-4.656816101E-1,4.688250732E0,1.004770569E1,1.109742961E1
3.636050292E0,-2.020797729E-1,4.399650879E0,1.035726196E1,1.125480517E1
3.646074292E0,1.212478638E-2,4.240980835E0,1.054991135E1,1.137043072E1
3.656099292E0,1.830693054E-1,4.233496399E0,1.046114594E1,1.128678787E1
3.666123292E0,1.889071655E-1,4.087250519E0,1.004441254E1,1.084580684E1
3.676148292E0,2.706372070E-1,3.854334869E0,9.683363342E0,1.042576939E1
3.686172292E0,2.007325745E-1,3.966451721E0,9.298363953E0,1.011101405E1
3.696197292E0,-3.592529297E-2,4.292623444E0,9.010512543E0,9.980843799E0
3.706221292E0,-1.847158813E-1,4.332440643E0,9.152866516E0,1.012813543E1
3.716246292E0,-1.474433899E-1,4.182003479E0,9.438472595E0,1.032451731E1
3.726270292E0,8.726852417E-2,3.882476349E0,1.015173935E1,1.086917891E1
3.736295292E0,1.924996948E-1,3.686683502E0,1.104702759E1,1.164755382E1
3.746319292E0,3.323089600E-1,3.433859253E0,1.169128784E1,1.218966899E1
3.756344292E0,4.635859680E-1,3.085234222E0,1.191926376E1,1.232081291E1
3.766368292E0,3.694317627E-1,2.989283752E0,1.193647797E1,1.231063782E1
3.776393292E0,9.430389404E-2,3.071313171E0,1.173829010E1,1.213380865E1
3.786417292E0,-1.411564636E-1,3.177741852E0,1.093086914E1,1.138428165E1
3.796442292E0,-2.453398132E-1,3.331172791E0,9.961185608E0,1.050628966E1
3.806467292E0,-4.757107544E-1,3.459006958E0,9.047186279E0,9.697556879E0
3.816491292E0,-8.219407654E-1,3.537144470E0,8.270451508E0,9.032571382E0
3.826516292E0,-1.060993652E0,3.667373657E0,7.795788574E0,8.680417995E0
3.836540292E0,-8.866062927E-1,3.770509186E0,7.681276703E0,8.602605537E0
3.846565292E0,-3.478765869E-1,3.615281982E0,8.183332672E0,8.953112060E0
3.856589292E0,3.330574036E-1,3.485052795E0,8.343649292E0,9.048370225E0
3.866614292E0,5.408253479E-1,3.352428589E0,9.256301422E0,9.859532723E0
3.876638292E0,3.781137085E-1,3.248394928E0,9.270970917E0,9.830866764E0
3.886663292E0,2.986289978E-1,3.353177032E0,8.523425446E0,9.164156089E0
3.896687292E0,1.475930786E-1,3.867208099E0,7.942782898E0,8.835433343E0
3.906712292E0,-2.263293457E-1,4.134402466E0,7.515720978E0,8.580825749E0
3.916736292E0,-6.632707214E-1,4.099524994E0,7.512128448E0,8.583595229E0
3.926761292E0,-7.746391296E-1,4.173022156E0,8.054750061E0,9.104569086E0
3.936785292E0,-4.766088867E-1,4.236639862E0,8.248147888E0,9.284838014E0
3.946810292E0,2.080673218E-2,4.096381531E0,8.123457184E0,9.097875092E0
3.956834292E0,4.493655396E-1,3.910767517E0,7.991132355E0,8.908099027E0
3.966859292E0,5.536985779E-1,3.804189148E0,7.890990601E0,8.777594764E0
3.976883292E0,2.698887634E-1,3.848047943E0,8.094567261E0,8.966734749E0
3.986908292E0,-1.523831177E-1,4.032913513E0,8.194409637E0,9.134328729E0
3.996932292E0,-5.935157776E-1,4.154610443E0,8.292755127E0,9.294236736E0
4.006957292E0,-8.340655518E-1,4.162693634E0,8.298293610E0,9.321231703E0
4.016982292E0,-1.031954041E0,4.116888885E0,8.151149597E0,9.189937051E0
4.027006292E0,-1.162931671E0,4.166884918E0,8.156388702E0,9.232660324E0
4.037031292E0,-1.085243225E0,4.374353485E0,8.221802673E0,9.376073830E0
4.047055292E0,-7.631130981E-1,4.539011078E0,8.104147339E0,9.319987514E0
4.057080292E0,-2.168989563E-1,4.519850922E0,8.322393494E0,9.473031773E0
4.067104292E0,3.948788452E-1,4.492906952E0,8.605005798E0,9.715362421E0
4.077129292E0,4.824467468E-1,4.685107269E0,8.647218018E0,9.846693071E0
4.087153292E0,2.448907471E-1,4.750820618E0,8.597521362E0,9.825865946E0
4.097178292E0,7.334747314E-3,4.662504272E0,7.998766479E0,9.258469910E0
4.107202292E0,-2.249821472E-1,5.118306427E0,8.222102051E0,9.687653987E0
4.117227292E0,-2.080673218E-1,5.160668335E0,7.864346008E0,9.408704896E0
4.127251292E0,1.466949463E-2,4.870571594E0,7.407346344E0,8.865182610E0
4.137276292E0,-5.478607178E-2,4.785099335E0,8.015830994E0,9.335615870E0
4.147300292E0,-4.296066284E-2,4.893773346E0,8.660690002E0,9.947784401E0
4.157325292E0,1.924996948E-1,4.611460419E0,9.186247101E0,1.028055247E1
4.167349292E0,4.183799744E-1,4.282294922E0,9.414522400E0,1.035115084E1
4.177374292E0,6.255491638E-1,4.339476013E0,9.764195251E0,1.070335801E1
4.187398292E0,6.048921204E-1,4.507426758E0,1.010383896E1,1.108017835E1
4.197423292E0,4.593946838E-1,4.445006561E0,1.008617569E1,1.103177533E1
4.207448292E0,4.272116089E-1,4.216880951E0,9.732760620E0,1.061561228E1
4.217472292E0,5.107379150E-1,4.124073944E0,9.325756989E0,1.020972980E1
4.227497292E0,3.918850708E-1,4.227658539E0,8.918004913E0,9.877119128E0
4.237521292E0,1.740879822E-1,4.280648346E0,8.912765808E0,9.888966136E0
4.247546292E0,1.315763855E-1,4.131408691E0,8.875193939E0,9.790552465E0
4.257570292E0,1.842668152E-1,3.899840240E0,8.616382141E0,9.459637909E0
4.267595292E0,3.806584167E-1,3.737727356E0,8.345445557E0,9.152156476E0
4.277619292E0,6.459068298E-1,3.919000397E0,7.704029388E0,8.667631081E0
4.287644292E0,6.114784241E-1,4.316573639E0,7.470365295E0,8.649454982E0
4.297668292E0,2.429447937E-1,4.256249084E0,7.727081451E0,8.825104317E0
4.307693292E0,-2.230361938E-2,4.410129089E0,8.100854187E0,9.223533737E0
4.317717292E0,-3.341052246E-1,4.541256409E0,9.068442078E0,1.014747642E1
4.327742292E0,-1.050216064E0,4.337230682E0,1.020368134E1,1.113685937E1
4.337766292E0,-1.322350159E0,4.102369080E0,1.080228653E1,1.163045297E1
4.347791292E0,-1.084794159E0,3.875740356E0,1.053269714E1,1.127545346E1
4.357815292E0,-7.494914246E-1,3.700305176E0,9.843380585E0,1.054258683E1
4.367840292E0,-6.168672180E-1,3.822900238E0,9.417216797E0,1.018229167E1
4.377864292E0,-6.014492798E-1,4.314328308E0,9.250014496E0,1.022437960E1
4.387889292E0,-5.525010681E-1,4.730612640E0,9.136999512E0,1.030382033E1
4.397914292E0,-5.295986938E-1,4.719984741E0,9.040749664E0,1.021243777E1
4.407938292E0,-5.599855042E-1,4.685556335E0,9.021589508E0,1.018121305E1
4.417963292E0,-7.973918152E-1,4.522245941E0,8.918903046E0,1.003161869E1
4.427987292E0,-1.290466461E0,4.739743652E0,8.598868561E0,9.903081041E0
4.438012292E0,-8.071215820E-1,4.870421906E0,9.946216736E0,1.110403900E1
4.448036292E0,-3.763174438E-1,4.248016205E0,9.131760406E0,1.007850706E1
4.458061292E0,-5.043013000E-1,3.659889221E0,9.608369293E0,1.029416677E1
4.468085292E0,-1.199006653E0,4.271667023E0,9.890233154E0,1.083980941E1
4.478110292E0,-1.138682098E0,4.472848663E0,9.174721069E0,1.027027160E1
4.488134292E0,-1.142124939E0,4.103267212E0,8.342751160E0,9.367109912E0
4.498159292E0,-1.235530701E0,4.201013947E0,8.006250916E0,9.125519602E0
4.508183292E0,-1.173858948E0,4.520599365E0,8.209528198E0,9.445110729E0
4.518208292E0,-9.536668396E-1,4.793182526E0,8.027207336E0,9.397879377E0
4.528232292E0,-4.085005188E-1,4.775668945E0,7.503745880E0,8.903936701E0
4.538257292E0,1.257385254E-2,4.442761230E0,6.620881805E0,7.973353205E0
4.548281292E0,-1.466949463E-2,4.307143250E0,6.364165649E0,7.684679732E0
4.558306292E0,-4.628375244E-1,4.618795166E0,6.849606171E0,8.274333330E0
4.568331292E0,-9.572593689E-1,4.773722992E0,7.480993195E0,8.925807296E0
4.578355292E0,-1.326242065E0,4.578079834E0,7.920030212E0,9.243625455E0
4.588380292E0,-1.467697906E0,4.027824097E0,7.970175934E0,9.049928647E0
4.598404292E0,-1.025367737E0,3.432212677E0,7.167844391E0,8.013080311E0
4.608432208E0,-4.450245667E-1,3.968846741E0,6.498735809E0,7.627801678E0
4.618456208E0,-6.240522766E-1,4.521647186E0,6.874604187E0,8.251964448E0
4.628481208E0,-5.330415344E-1,4.626578979E0,7.068002014E0,8.464397132E0
4.638505208E0,-2.246827698E-1,4.820874939E0,7.552544403E0,8.962825698E0
4.648530208E0,-4.869374084E-1,4.815635834E0,8.695866852E0,9.952163424E0
4.658554208E0,-1.182540894E0,4.409530334E0,1.035935760E1,1.132071777E1
4.668579208E0,-1.639540558E0,4.105961609E0,1.095302307E1,1.181167763E1
4.678603208E0,-1.547931061E0,4.038152618E0,1.053179901E1,1.138514636E1
4.688628208E0,-1.638792114E0,3.767515411E0,1.047027695E1,1.124751134E1
4.698652208E0,-1.935924225E0,3.478466492E0,1.084270248E1,1.155039951E1
4.708677208E0,-2.148931274E0,3.468287659E0,1.145552811E1,1.216042964E1
4.718702208E0,-2.183060303E0,3.766766968E0,1.209679459E1,1.285638849E1
4.728726208E0,-2.273771667E0,4.325554962E0,1.240096207E1,1.332907812E1
4.738751208E0,-2.215842133E0,4.519701233E0,1.238404724E1,1.336795727E1
4.748775208E0,-1.774260406E0,4.747677155E0,1.171673492E1,1.276598275E1
4.758800208E0,-9.464817810E-1,5.003644867E0,1.165940414E1,1.272297114E1
4.768824208E0,-3.454815674E-1,4.797523499E0,1.088222031E1,1.189782787E1
4.778849208E0,-2.032772827E-1,4.274660797E0,1.083671494E1,1.165111313E1
4.788873208E0,-4.649331665E-1,3.980522461E0,1.138592285E1,1.207062389E1
4.798898208E0,-6.489006042E-1,3.910917206E0,1.152333710E1,1.218620709E1
4.808922208E0,-7.195536804E-1,3.749702454E0,1.203736816E1,1.262839096E1
4.818947208E0,-7.274871826E-1,3.705095215E0,1.212358887E1,1.269796736E1
4.828971208E0,-4.264631653E-1,3.704795837E0,1.161449753E1,1.219852187E1
4.838996208E0,-3.442840576E-3,3.401676178E0,1.074151291E1,1.126727617E1
4.849020208E0,-1.251397705E-1,3.256627808E0,9.882149963E0,1.040567982E1
4.859045208E0,-3.095562744E-1,3.541186066E0,8.943451996E0,9.623988645E0
4.869070208E0,-2.853067017E-1,3.718567200E0,8.137078857E0,8.951044311E0
4.879094208E0,-2.148033142E-1,4.003275146E0,7.505542145E0,8.509143038E0
4.889119208E0,-2.891986084E-1,4.091591492E0,7.853119354E0,8.859810402E0
4.899143208E0,-4.540058899E-1,3.917952576E0,8.545579376E0,9.411875510E0
4.909168208E0,-5.147795105E-1,3.516337738E0,8.635691986E0,9.338351306E0
4.919192208E0,-2.001338196E-1,2.954406281E0,8.343050537E0,8.852969122E0
4.929217208E0,5.935157776E-1,2.789299622E0,7.528444519E0,8.050461492E0
4.939241208E0,1.161734161E0,2.984793091E0,6.885232086E0,7.593749860E0
4.949266208E0,1.510808258E0,2.816093903E0,6.979685669E0,7.676518644E0
4.959290208E0,1.559457092E0,2.916385345E0,7.540718994E0,8.234054460E0
4.969315208E0,1.043929138E0,2.988385620E0,8.613837433E0,9.177060095E0
4.979339208E0,9.131011963E-3,2.886896667E0,1.009845016E1,1.050299726E1
4.989364208E0,-6.484515381E-1,3.002306671E0,1.058673477E1,1.102330658E1
4.999388208E0,-1.604663086E-1,2.786754913E0,9.147627411E0,9.564038877E0
5.009413208E0,1.402583313E-1,2.254012756E0,7.996371460E0,8.309163762E0
5.019438208E0,1.179547119E-1,1.729802856E0,7.803273010E0,7.993572475E0
5.029462208E0,-1.561253357E-1,1.613794098E0,7.737559662E0,7.905601560E0
5.039487208E0,-3.594026184E-1,1.894610138E0,7.356452179E0,7.605005357E0
5.049511208E0,-6.884184265E-1,2.394570465E0,7.147337036E0,7.569168670E0
5.059536208E0,-1.261576538E0,3.070415039E0,6.996600494E0,7.744123085E0
5.069560208E0,-2.052232361E0,3.648812256E0,6.237379303E0,7.512016315E0
5.079585208E0,-1.759740601E0,3.658542023E0,8.033943329E0,9.001436670E0
5.089609208E0,-1.090033264E0,2.684218140E0,7.179220734E0,7.741731711E0
5.099634208E0,-6.141728210E-1,1.770967255E0,6.793622589E0,7.047470550E0
5.109658208E0,-1.178648987E0,1.852397919E0,8.215665436E0,8.503984362E0
5.119683208E0,-1.128054199E0,2.155966644E0,7.870932312E0,8.238463079E0
5.129707208E0,-9.511221313E-1,1.606908417E0,7.588918762E0,7.815271969E0
5.139732208E0,-9.580078125E-1,1.637893982E0,7.464826813E0,7.702214942E0
5.149756208E0,-9.413923645E-1,1.921254730E0,7.683372345E0,7.975691187E0
5.159781208E0,-8.683442688E-1,1.739832001E0,8.011939087E0,8.244525765E0
5.169806208E0,-6.420149231E-1,1.559457092E0,8.624016266E0,8.787362866E0
5.179830208E0,-3.779640198E-1,1.223106537E0,8.531957703E0,8.627464786E0
5.189855208E0,-3.992198181E-1,9.443861389E-1,8.328081665E0,8.390958578E0
5.199879208E0,-6.042933655E-1,8.310717773E-1,8.031697998E0,8.097161447E0
5.209904208E0,-9.306147766E-1,1.098116455E0,8.309220886E0,8.432974288E0
5.219928208E0,-1.453028412E0,1.375040588E0,8.279582520E0,8.517835105E0
5.229953208E0,-1.772164764E0,1.615889740E0,8.464148712E0,8.797356479E0
5.239977208E0,-1.011446686E0,1.784439240E0,8.640931091E0,8.881043741E0
5.250002208E0,1.558259583E-1,1.462009735E0,9.276958466E0,9.392747871E0
5.260026208E0,5.501060486E-1,9.328601074E-1,1.092158844E1,1.097515096E1
5.270051208E0,6.652166748E-1,4.815486145E-1,1.174322983E1,1.177190932E1
5.280075208E0,1.769620056E0,1.250499573E0,1.058927948E1,1.080870687E1
5.290100208E0,1.752555542E0,2.129920807E0,1.083312241E1,1.117875461E1
5.300125208E0,1.053958282E0,2.087109833E0,1.224917770E1,1.247033319E1
5.310149208E0,2.790197754E-1,1.979333954E0,1.232192642E1,1.248300788E1
5.320174208E0,-2.556683350E-1,1.990710297E0,1.231578918E1,1.247825937E1
5.330198208E0,-4.402345276E-1,1.822310486E0,1.290765839E1,1.304309269E1
5.340223208E0,7.005432129E-2,1.187480621E0,1.325658279E1,1.330984618E1
5.350247208E0,1.358125763E0,4.556524658E-1,1.325388840E1,1.333107957E1
5.360272208E0,2.667303314E0,1.475930786E-1,1.349818039E1,1.375998418E1
5.370296208E0,4.086202698E0,1.983375549E-1,1.352841751E1,1.413345218E1
5.380321208E0,4.744982758E0,6.721023560E-1,1.352168152E1,1.434581660E1
5.390345208E0,4.275259552E0,1.486858063E0,1.300585419E1,1.377101428E1
5.400370208E0,3.153342590E0,1.886976013E0,1.223630447E1,1.277620425E1
5.410394208E0,2.141297150E0,1.670825500E0,1.142663818E1,1.174499347E1
5.420419208E0,1.716330872E0,1.331780548E0,1.091949280E1,1.113349694E1
5.430444208E0,1.793719940E0,1.022523651E0,1.038166122E1,1.058498350E1
5.440468208E0,1.975142670E0,4.842430115E-1,1.021760239E1,1.041801701E1
5.450493208E0,2.252515869E0,1.357676697E-1,9.962532806E0,1.021490678E1
5.460517208E0,2.677482147E0,-3.338058472E-1,9.019493866E0,9.414436074E0
5.470542208E0,2.982248383E0,-8.352630615E-1,7.988437958E0,8.567765800E0
5.480566208E0,2.652933197E0,-1.622176666E0,6.690786438E0,7.378084768E0
5.490591208E0,2.592458954E0,-2.124681702E0,6.273603973E0,7.112891295E0
5.500615208E0,2.900368652E0,-1.770218811E0,6.500831451E0,7.335299757E0
5.510640208E0,3.011287994E0,-1.027164001E0,6.828200684E0,7.533076785E0
5.520664208E0,2.916085968E0,-2.528242493E-1,7.238796844E0,7.808178868E0
5.530689208E0,2.709814911E0,4.400848389E-2,7.311545563E0,7.797674789E0
5.540713208E0,2.348166962E0,2.032772827E-1,7.253915405E0,7.627220886E0
5.550738208E0,2.100881195E0,5.489085388E-1,6.791227570E0,7.129921057E0
5.560763208E0,2.060614929E0,6.018983459E-1,6.613397369E0,6.953088542E0
5.570787208E0,1.842817841E0,1.187480621E0,5.868995361E0,6.265077364E0
5.580812208E0,1.535806274E0,2.252964935E0,4.239483948E0,5.040612667E0
5.590836208E0,6.921606445E-1,2.730471954E0,3.093766479E0,4.184011769E0
5.600861208E0,2.387535095E-1,3.877386932E0,2.637814636E0,4.695657432E0
5.610886667E0,-6.646179199E-2,5.155578918E0,2.333048401E0,5.659286704E0
5.620911667E0,-3.751199341E-1,5.794749756E0,1.885628815E0,6.105361228E0
5.630935667E0,-4.620890808E-1,5.882018280E0,1.675765228E0,6.133502626E0
5.640960667E0,-1.833686829E-1,5.546715546E0,1.188378754E0,5.675554729E0
5.650984667E0,2.827619934E-1,4.919220428E0,1.343306580E0,5.107167173E0
5.661009667E0,-2.676434326E-1,4.034260712E0,3.355721741E0,5.254308794E0
5.671033667E0,-7.018904114E-1,4.046984253E0,5.445376282E0,6.820766419E0
5.681058667E0,-4.891827393E-1,4.040697327E0,7.207362213E0,8.277234122E0
5.691083667E0,-7.798782349E-1,3.056643677E0,8.810827789E0,9.358523760E0
5.701107667E0,-6.171665955E-1,2.380799103E0,9.776619415E0,1.008123932E1
5.711132667E0,6.975494385E-2,2.413431244E0,1.045650558E1,1.073163665E1
5.721156667E0,5.962101746E-1,2.844534760E0,1.084195404E1,1.122474107E1
5.731181667E0,9.352551270E-1,3.716172180E0,1.218645813E1,1.277475634E1
5.741205667E0,8.550219727E-1,4.926854553E0,1.496872238E1,1.578187594E1
5.751230667E0,1.920506287E-1,6.471342773E0,1.864597549E1,1.973797261E1
5.761254667E0,1.583407288E0,8.066425781E0,2.216545670E1,2.364068261E1
5.771279667E0,4.492008820E0,8.264463959E0,2.630794235E1,2.793899316E1
5.781303667E0,4.934039612E0,8.770561523E0,3.259711395E1,3.411508954E1
5.791328667E0,5.110223236E0,9.363927612E0,3.922368393E1,4.064843051E1
5.801353667E0,4.753215637E0,8.976832581E0,4.373440384E1,4.489849286E1
5.811377667E0,4.198918304E0,8.634344788E0,4.607119446E1,4.706100067E1
5.821402667E0,4.747976532E0,8.015681305E0,4.800068207E1,4.889642019E1
5.831426667E0,6.764133911E0,6.181545410E0,4.897171280E1,4.982161846E1
5.841451667E0,9.897118835E0,3.619772644E0,4.748036407E1,4.863579636E1
5.851475667E0,1.303115158E1,1.250200195E0,4.327605698E1,4.521273072E1
5.861500667E0,1.453866669E1,-6.797364807E-1,3.633753571E1,3.914398258E1
5.871524667E0,1.372151596E1,-1.763183441E0,2.953538086E1,3.261483617E1
5.881549667E0,1.007569748E1,-2.360142059E0,2.351295456E1,2.568947221E1
5.891573667E0,6.874155121E0,-2.548001404E0,1.861753464E1,2.000897088E1
5.901598667E0,4.604874115E0,-2.459385681E0,1.377315857E1,1.472933605E1
5.911623667E0,3.653153229E0,-1.982477417E0,8.583151245E0,9.536573311E0
5.921647667E0,3.195405121E0,-1.439855804E0,4.416565704E0,5.638248952E0
5.931672667E0,3.615581360E0,-1.517244873E0,3.686384125E0,5.381810893E0
5.941696667E0,5.544619904E0,-2.168540497E0,4.886588287E0,7.702215451E0
5.951721667E0,8.094716949E0,-2.955304413E0,4.978197784E0,9.951920410E0
5.961745667E0,1.015009277E1,-3.132236481E0,4.178111572E0,1.141454795E1
5.971770667E0,1.029573990E1,-3.187621307E0,2.235750732E0,1.100735077E1
5.981794667E0,7.849975891E0,-2.294728088E0,-1.048868866E0,8.245485091E0
5.991819667E0,4.308640137E0,-8.659492493E-1,-4.439917145E0,6.247168333E0
6.001843667E0,1.977687378E0,-7.000941467E-1,-6.265670471E0,6.607571841E0
6.011868667E0,6.155200195E-1,-1.620380402E0,-6.913223877E0,7.127212773E0
6.021893667E0,-3.960763550E-1,-1.865271149E0,-6.805447998E0,7.067548047E0
6.031917667E0,-1.194515991E0,-1.466201019E0,-6.104605408E0,6.390838839E0
6.041942667E0,-1.576222229E0,-1.531614990E0,-4.956792297E0,5.422186909E0
6.051966667E0,-1.977986755E0,-1.276695099E0,-4.353546753E0,4.949318267E0
6.061991667E0,-2.167342987E0,-6.197113037E-1,-3.747606812E0,4.373325341E0
6.072015667E0,-2.044149170E0,-2.026785278E-1,-3.050656128E0,3.677788361E0
6.082040667E0,-1.473386078E0,-1.881587219E-1,-2.497556305E0,2.905866090E0
6.092064667E0,-6.650669861E-1,-9.280700684E-3,-2.401905212E0,2.492297911E0
6.102089667E0,-2.977308655E-1,3.333567810E-1,-2.533631287E0,2.572752982E0
6.112113667E0,-8.681945801E-3,7.054829407E-1,-2.406994629E0,2.508267270E0
6.122138667E0,4.616400146E-1,7.743397522E-1,-1.756297760E0,1.974156877E0
6.132163667E0,8.656498718E-1,7.593708801E-1,-1.260977783E0,1.707647154E0
6.142187667E0,1.046922913E0,8.675958252E-1,-8.400531006E-1,1.598267597E0
6.152212667E0,1.158590698E0,9.395960999E-1,-4.251159668E-2,1.492307097E0
6.162236667E0,9.599537659E-1,1.085243225E0,8.484356689E-1,1.679019706E0
6.172261667E0,6.496490479E-1,1.105750580E0,1.752854919E0,2.171918184E0
6.182285667E0,7.547305298E-1,8.270301819E-1,2.339185638E0,2.593335024E0
6.192310667E0,9.827064514E-1,6.292913818E-1,2.828069000E0,3.059361679E0
6.202334667E0,1.034049683E0,6.309379578E-1,3.169059906E0,3.392680672E0
6.212359667E0,8.131091309E-1,7.294331360E-1,2.976709900E0,3.170807624E0
6.222383667E0,6.201603699E-1,6.691085815E-1,2.653382263E0,2.805840803E0
6.232408667E0,6.414161682E-1,5.432203674E-1,2.640658722E0,2.771205794E0
6.242433667E0,9.439370728E-1,5.641767883E-1,3.016826477E0,3.211005238E0
6.252457667E0,1.219364319E0,8.496331787E-1,3.359463959E0,3.673516567E0
6.262482667E0,1.683549042E0,1.278790741E0,4.036356354E0,4.556513552E0
6.272506667E0,1.756597137E0,2.180964661E0,3.256029053E0,4.294643821E0
6.282531667E0,7.614665222E-1,3.243155823E0,7.207511902E-1,3.408426797E0
6.292555667E0,-2.787203979E-1,3.894301758E0,-1.722019043E0,4.267156058E0
6.302580667E0,-7.029382324E-1,4.393813019E0,-4.018094330E0,5.995397989E0
6.312604667E0,-3.177891541E-1,4.417314148E0,-4.622687073E0,6.401788032E0
6.322629667E0,2.902464294E-1,4.375401306E0,-3.312162323E0,5.495343377E0
6.332653667E0,6.879693604E-1,4.606820068E0,-1.127754822E0,4.792486194E0
6.342678667E0,1.097966766E0,4.665048981E0,2.257305908E-1,4.797829438E0
6.352703667E0,1.014440460E0,4.332740021E0,7.497908020E-1,4.512639115E0
6.362727667E0,3.170407104E-1,4.285139008E0,2.760260010E-1,4.305708011E0
6.372752667E0,-8.900491333E-1,4.334985352E0,-4.050576782E-1,4.443912373E0
6.382776667E0,-2.048639832E0,4.109703827E0,-4.522096252E-1,4.614226289E0
6.392801667E0,-2.925067291E0,4.010759583E0,2.270777893E-1,4.969283189E0
6.402825667E0,-3.612437897E0,4.116589508E0,1.635049896E0,5.715715607E0
6.412850667E0,-3.685036926E0,4.417314148E0,3.399730225E0,6.682090020E0
6.422874667E0,-3.013832703E0,5.153483276E0,5.339097290E0,8.009215774E0
6.432899667E0,-1.654808807E0,6.307433624E0,7.004833374E0,9.570256094E0
6.442923667E0,-1.950444031E-1,7.897576904E0,8.233029327E0,1.141019435E1
6.452948667E0,8.472381592E-1,9.798324280E0,9.181756439E0,1.345472491E1
6.462973667E0,1.945204926E0,1.175116333E1,9.595795441E0,1.529552065E1
6.472997667E0,2.800226898E0,1.366613113E1,1.020428009E1,1.728385787E1
6.483022667E0,3.306773529E0,1.588182358E1,1.241188934E1,2.042601450E1
6.493046667E0,4.312232666E0,1.880225052E1,1.648447037E1,2.537435198E1
6.503071667E0,4.895270233E0,2.191338089E1,1.975082794E1,2.990409900E1
6.513095667E0,3.718267822E0,2.511192947E1,2.098620895E1,3.293714444E1
6.523120667E0,7.554789734E-1,2.857288239E1,1.978839981E1,3.476436571E1
6.533144667E0,-1.902843018E0,3.188160187E1,1.921134979E1,3.727107873E1
6.543169667E0,-2.537822571E0,3.464021530E1,2.442485825E1,4.246126187E1
6.553193667E0,1.158141632E0,3.499722290E1,3.513119431E1,4.960189226E1
6.563218667E0,7.107819214E0,3.225028519E1,4.534011475E1,5.609213843E1
6.573243667E0,1.288430695E1,2.555530746E1,4.828434219E1,5.612893021E1
6.583267667E0,1.685300400E1,1.936448135E1,4.289195572E1,4.998726585E1
6.593292667E0,1.783960236E1,1.688803116E1,3.195958969E1,4.030970580E1
6.603316667E0,1.576431793E1,1.620530090E1,1.990800110E1,3.012397724E1
6.613340583E0,1.249571503E1,1.532168839E1,1.060574524E1,2.243610619E1
6.623364583E0,8.950637054E0,1.324984680E1,6.113287354E0,1.711854626E1
6.633389583E0,5.029990082E0,1.077279785E1,5.046455841E0,1.291590842E1
6.643413583E0,1.297052765E0,8.387657776E0,4.424349518E0,9.571312214E0
6.653438583E0,-7.984396362E-1,5.293442230E0,3.692221985E0,6.503117689E0
6.663463583E0,-7.289840698E-1,2.486329651E0,3.995042267E0,4.761682016E0
6.673487583E0,4.489164734E-1,7.952961731E-1,4.611759796E0,4.701313691E0
6.683512583E0,2.231709137E0,-9.924362183E-1,4.821024628E0,5.404417987E0
6.693536583E0,3.383563843E0,-1.981130219E0,3.101400604E0,4.999206630E0
6.703561583E0,3.962559814E0,-3.102897491E0,-4.487667847E-1,5.052845214E0
6.713585583E0,4.362677765E0,-3.953129425E0,-5.096751251E0,7.786980342E0
6.723610583E0,5.208419037E0,-4.357438660E0,-7.379953308E0,1.002888884E1
6.733634583E0,6.016887817E0,-4.403842163E0,-6.068680115E0,9.613825625E0
6.743659583E0,6.047124939E0,-3.438649292E0,-3.638184357E0,7.850376704E0
6.753684583E0,4.766238556E0,-2.056124268E0,-2.151775360E0,5.619147104E0
6.763708583E0,3.517834625E0,-1.673819275E0,-2.093546448E0,4.422642665E0
6.773733583E0,2.533182220E0,-1.871857452E0,-2.846780090E0,4.245588224E0
6.783757583E0,1.650318146E0,-1.966909790E0,-3.248245239E0,4.140456646E0
6.793782583E0,8.752299500E-1,-1.830243988E0,-3.101699982E0,3.706260015E0
6.803806583E0,4.231700134E-1,-1.731748810E0,-2.764301605E0,3.289284142E0
6.813831583E0,4.549040222E-1,-1.865720215E0,-1.707648926E0,2.569808250E0
6.823855583E0,8.512797546E-1,-1.646126862E0,-8.012837219E-1,2.019026119E0
6.833880583E0,1.452279968E0,-1.208586731E0,-2.029779053E-1,1.900262882E0
6.843904583E0,1.908231812E0,-5.604345703E-1,2.978805542E-1,2.011011780E0
6.853929583E0,1.981728973E0,4.149371338E-1,1.475930786E-1,2.030075434E0
6.863954583E0,1.996847534E0,1.231339417E0,-3.953279114E-1,2.379050439E0
6.873978583E0,1.727108459E0,1.805245972E0,-1.235979767E0,2.787375582E0
6.884003583E0,1.347198486E0,2.400108948E0,-1.278191986E0,3.034673207E0
6.894027583E0,1.229842529E0,2.982847137E0,-4.284091187E-1,3.254754071E0
6.904052583E0,1.663490753E0,3.097359009E0,4.843927002E-1,3.549009806E0
6.914076583E0,2.118843842E0,3.020568695E0,1.027463379E0,3.830015073E0
6.924101583E0,2.355801086E0,2.786754913E0,1.427132263E0,3.918227686E0
6.934125583E0,2.307451630E0,2.855012970E0,1.350791016E0,3.911530193E0
6.944150583E0,1.810784454E0,3.248245239E0,5.331912231E-1,3.756904358E0
6.954175583E0,1.156345367E0,3.350632324E0,-4.031117249E-1,3.567403908E0
6.964199583E0,5.059478760E-1,3.515140228E0,-1.251697083E0,3.765493283E0
6.974224583E0,2.329156494E-1,3.470982056E0,-1.610051880E0,3.833305778E0
6.984248583E0,-2.814147949E-2,3.179687805E0,-1.759740601E0,3.634266565E0
6.994273583E0,-2.969824219E-1,2.904110870E0,-1.485510864E0,3.275484855E0
7.004297583E0,-3.261717224E-1,3.139571228E0,-1.157243500E0,3.361920286E0
7.014322583E0,2.216889954E-1,3.549269257E0,-5.739065552E-1,3.602197524E0
7.024346583E0,1.812281342E0,3.350782013E0,-2.140548706E-2,3.809535661E0
7.034371583E0,2.865341492E0,3.430117035E0,-4.462220764E-1,4.491658811E0
7.044396583E0,2.232756958E0,4.643044739E0,-1.272354126E0,5.306783687E0
7.054420583E0,9.154962158E-1,5.487738190E0,-1.669328613E0,5.808619610E0
7.064445583E0,5.251080322E-1,5.378764801E0,-1.313967590E0,5.561776700E0
7.074469583E0,5.731581116E-1,5.204078064E0,-3.091072083E-1,5.244662619E0
7.084494583E0,8.262817383E-1,5.298531647E0,4.637356567E-1,5.382585799E0
7.094518583E0,1.390159149E0,5.075345764E0,4.469705200E-1,5.281236572E0
7.104543583E0,1.977088623E0,5.010829926E0,8.113128662E-2,5.387381391E0
7.114567583E0,2.443219299E0,4.991969147E0,-4.828958130E-1,5.578733268E0
7.124592583E0,2.898871765E0,4.949607239E0,-8.533753967E-1,5.799165362E0
7.134616583E0,3.426823883E0,4.939129028E0,-1.856140137E-2,6.011527427E0
7.144641583E0,3.649411011E0,5.069807281E0,1.828747101E0,6.508875675E0
7.154666583E0,4.014801178E0,5.417833557E0,3.774700470E0,7.727865979E0
7.164690583E0,4.840783539E0,6.262377319E0,5.496719513E0,9.636621834E0
7.174715583E0,5.925278320E0,6.838529205E0,5.558990021E0,1.061964100E1
7.184739583E0,6.482569427E0,7.003336487E0,4.478985901E0,1.054190415E1
7.194764583E0,6.958729248E0,7.851921844E0,4.051774292E0,1.124693133E1
7.204788583E0,7.570956116E0,9.140741730E0,4.366869049E0,1.264682099E1
7.214813583E0,8.374185791E0,1.045545776E1,6.256240082E0,1.478459078E1
7.224838583E0,8.749605103E0,1.275767029E1,9.757459259E0,1.828993581E1
7.234862583E0,9.498497772E0,1.635708527E1,1.565519485E1,2.455322432E1
7.244887583E0,1.159114609E1,2.104668320E1,2.175620773E1,3.241373345E1
7.254911583E0,1.430066162E1,2.465777390E1,2.623384644E1,3.873924928E1
7.264936583E0,1.832354599E1,2.463217712E1,2.848052444E1,4.187644636E1
7.274960583E0,2.247830612E1,2.290536804E1,2.972219238E1,4.374172895E1
7.284985583E0,2.415047882E1,2.144051422E1,3.174059509E1,4.528141621E1
7.295009583E0,2.321746902E1,2.016636383E1,3.415282883E1,4.595812023E1
7.305034583E0,2.047142944E1,1.938394089E1,3.573144608E1,4.551431452E1
7.315058583E0,1.783346512E1,1.833327576E1,3.581018234E1,4.400580232E1
7.325083583E0,1.601848938E1,1.767404663E1,3.451342896E1,4.195403085E1
7.335108583E0,1.429407532E1,1.636187531E1,3.053200836E1,3.747312487E1
7.345132583E0,1.243539047E1,1.485241425E1,2.469235199E1,3.138383966E1
7.355157583E0,1.100631226E1,1.319116882E1,1.927182404E1,2.581761116E1
7.365181583E0,9.897118835E0,1.122051682E1,1.424273209E1,2.065692078E1
7.375206583E0,8.876541138E0,8.941206665E0,1.009141479E1,1.614232981E1
7.385230583E0,8.167615356E0,6.346352692E0,7.039561157E0,1.251165674E1
7.395255583E0,7.960296478E0,3.901786194E0,4.708458710E0,1.003792005E1
7.405280583E0,7.240144043E0,1.795516205E0,2.874622192E0,7.994186447E0
7.415304583E0,5.751789093E0,8.885522461E-1,1.411115570E0,5.988643420E0
7.425329583E0,3.972139893E0,2.842588806E-1,6.959028625E-1,4.042645079E0
7.435353583E0,2.569406891E0,-2.856060791E-1,6.159690857E-1,2.657600519E0
7.445378583E0,1.667232971E0,-7.622149658E-1,5.917195129E-1,1.926335749E0
7.455402583E0,8.279283142E-1,-9.324110413E-1,3.830534363E-1,1.304448381E0
7.465427583E0,3.387455750E-1,-8.535250854E-1,-3.876937866E-2,9.191064687E-1
7.475451583E0,8.038284302E-2,-4.529580688E-1,-8.045768738E-1,9.268097752E-1
7.485476583E0,2.282752991E-1,-3.299139404E-1,-1.187779999E0,1.253704170E0
7.495500583E0,3.209326172E-1,-8.981323242E-4,-1.698068848E0,1.728130887E0
7.505525583E0,2.564167786E-1,4.671784973E-1,-2.255509644E0,2.317612794E0
7.515550583E0,2.412982178E-1,7.005432129E-1,-2.757715302E0,2.855517345E0
7.525574583E0,2.318678284E-1,1.028361511E0,-3.181933136E0,3.352012615E0
7.535599583E0,2.212399292E-1,1.597478027E0,-3.223845978E0,3.604728290E0
7.545623583E0,1.167572021E-1,1.925745392E0,-2.927312622E0,3.505893145E0
7.555648583E0,9.924362183E-2,2.055974579E0,-2.141596527E0,2.970406782E0
7.565672583E0,6.298901367E-1,1.907183990E0,-9.171427917E-1,2.207999832E0
7.575697583E0,1.436263275E0,1.504221954E0,-9.445358276E-2,2.081935965E0
7.585722583E0,1.638642426E0,1.706601105E0,4.647834778E-1,2.411153253E0
7.595746583E0,1.414408722E0,2.149829407E0,1.747166748E0,3.110451761E0
7.605771292E0,8.906478882E-1,2.370171204E0,2.528541870E0,3.578336092E0
7.615795292E0,5.764512634E-1,2.166893921E0,2.839595032E0,3.618152190E0
7.625820292E0,7.542814636E-1,1.607956238E0,3.515888672E0,3.939027411E0
7.635844292E0,7.328759766E-1,1.527872772E0,3.460054779E0,3.852723904E0
7.645869292E0,4.851411438E-1,1.528321838E0,3.318149872E0,3.685274500E0
7.655893292E0,5.029541016E-2,1.443298645E0,3.074456635E0,3.396752008E0
7.665918292E0,-3.504212952E-1,1.480122070E0,2.526296539E0,2.948852426E0
7.675943292E0,-5.334906006E-1,1.408570862E0,2.331401825E0,2.775629399E0
7.685967292E0,-5.560935974E-1,1.156944122E0,2.063459015E0,2.430148740E0
7.695992292E0,-5.337899780E-1,1.357527008E0,8.430468750E-1,1.684796531E0
7.706016292E0,-1.812730408E-1,1.876198425E0,1.125509491E0,2.195393373E0
7.716041292E0,-2.478845215E-1,2.206262054E0,1.288370819E0,2.566892743E0
7.726065292E0,-2.404000854E-1,2.284698944E0,6.629713440E-1,2.391060951E0
7.736090292E0,1.004411316E-1,2.445314941E0,3.023712158E-1,2.465984983E0
7.746114292E0,1.853146362E-1,2.779420166E0,6.885681152E-2,2.786442039E0
7.756139292E0,-6.451583862E-2,3.014880524E0,-2.921923828E-1,3.029693591E0
7.766164292E0,6.601272583E-2,3.123404846E0,-5.478607178E-1,3.171776612E0
7.776188292E0,5.120851135E-1,3.320694580E0,-3.541635132E-1,3.378561151E0
7.786213292E0,9.108558655E-1,3.701203308E0,1.125659180E-1,3.813297185E0
7.796237292E0,9.407936096E-1,3.736230469E0,2.909948730E-1,3.863830838E0
7.806262292E0,7.512876892E-1,3.469934235E0,3.912863159E-1,3.571831710E0
7.816286292E0,5.876779175E-1,3.272494812E0,6.529421997E-1,3.388350800E0
7.826311292E0,6.032455444E-1,3.296445007E0,1.432521057E0,3.644526232E0
7.836335292E0,6.490502930E-1,3.599115601E0,2.055675201E0,4.195318811E0
7.846360292E0,9.641450500E-1,3.974085846E0,2.270029449E0,4.677175183E0
7.856385292E0,1.299447784E0,4.422403564E0,2.966381378E0,5.481389998E0
7.866409292E0,1.351988525E0,5.338947601E0,3.613336029E0,6.586989580E0
7.876434292E0,1.354682922E0,6.756499786E0,4.365521851E0,8.157403767E0
7.886458292E0,1.370400238E0,8.630303192E0,6.278244324E0,1.075994804E1
7.896483292E0,1.198707275E0,1.107756409E1,1.072654404E1,1.546635291E1
7.906507292E0,2.192640381E0,1.394874344E1,1.772434204E1,2.266114331E1
7.916532292E0,4.668342133E0,1.500943771E1,2.540217590E1,2.987218069E1
7.926556292E0,7.913892975E0,1.411564636E1,2.990615982E1,3.400381698E1
7.936581292E0,1.117471207E1,1.415920578E1,3.192381409E1,3.666724975E1
7.946606292E0,1.400727173E1,1.424123520E1,3.152698929E1,3.732247975E1
7.956630292E0,1.597253494E1,1.366613113E1,2.818354202E1,3.515959405E1
7.966655292E0,1.608405304E1,1.413286057E1,2.499532196E1,3.291201346E1
7.976679292E0,1.571402252E1,1.398302216E1,2.398028275E1,3.189842273E1
7.986704292E0,1.505643997E1,1.284763321E1,2.360007339E1,3.080132348E1
7.996728292E0,1.288864792E1,1.181388290E1,2.138048904E1,2.761902218E1
8.006753292E0,9.932894440E0,1.075678116E1,1.754845779E1,2.285430165E1
8.016777292E0,7.309599609E0,9.793234863E0,1.351853806E1,1.822329736E1
8.026802292E0,5.160368958E0,8.957073669E0,1.014530273E1,1.448398233E1
8.036827292E0,3.557352448E0,8.114176483E0,7.751480713E0,1.177200364E1
8.046851292E0,2.389780426E0,7.461683350E0,6.371650085E0,1.009879665E1
8.056876292E0,1.737436981E0,6.753206635E0,5.712121582E0,9.014034617E0
8.066900292E0,1.144220581E0,6.395001526E0,4.746329956E0,8.045677927E0
8.076925292E0,7.819738770E-1,6.021228790E0,4.249962158E0,7.411400518E0
8.086949292E0,5.450166321E-1,5.732628937E0,3.980672150E0,7.000416303E0
8.096974292E0,5.143304443E-1,5.489534454E0,3.644171906E0,6.609047829E0
8.106998292E0,8.295748901E-1,5.001249847E0,3.412902832E0,6.111350119E0
8.117023292E0,1.267414398E0,4.696184235E0,2.754422150E0,5.589930858E0
8.127048292E0,1.506766663E0,4.889582062E0,2.090253296E0,5.526980854E0
8.137072292E0,1.338516541E0,5.038073273E0,1.964365082E0,5.570685685E0
8.147097292E0,1.086740112E0,4.860243073E0,1.745819550E0,5.277390709E0
8.157121292E0,8.262817383E-1,4.609813843E0,1.947599945E0,5.072107128E0
8.167146292E0,7.816744995E-1,4.183051300E0,2.566263428E0,4.969370300E0
8.177170292E0,7.117698669E-1,3.824846191E0,2.263592834E0,4.501101782E0
8.187195292E0,4.334985352E-1,3.529510345E0,2.540367279E0,4.370220838E0
8.197219292E0,1.927990723E-1,3.475023651E0,3.058739319E0,4.633448724E0
8.207244292E0,5.897735596E-2,3.453468475E0,3.087629242E0,4.632858424E0
8.217269292E0,4.715194702E-2,3.461551666E0,3.641627197E0,5.024540963E0
8.227293292E0,-2.007325745E-1,3.885769501E0,4.614753571E0,6.036178319E0
8.237318292E0,-6.213578796E-1,4.382586365E0,5.611979828E0,7.147549681E0
8.247342292E0,-8.334667969E-1,4.719835052E0,6.654711456E0,8.201017887E0
8.257367292E0,-7.331753540E-1,5.342839508E0,7.977660370E0,9.629462347E0
8.267391292E0,-2.163002014E-1,6.067931671E0,1.043480072E1,1.207276466E1
8.277416292E0,4.656816101E-1,6.704707489E0,1.267923340E1,1.435036311E1
8.287441292E0,1.072369995E0,7.075486450E0,1.406909317E1,1.578454524E1
8.297465292E0,1.740879822E0,7.302713928E0,1.501228180E1,1.678478174E1
8.307490292E0,2.704126740E0,7.543263702E0,1.537228317E1,1.733551899E1
8.317514292E0,3.888164520E0,7.625742188E0,1.491648102E1,1.719799910E1
8.327539292E0,5.004842377E0,7.329059143E0,1.380144974E1,1.640864315E1
8.337563292E0,5.903723145E0,6.866221619E0,1.267429367E1,1.557679898E1
8.347588292E0,6.359076233E0,6.747817841E0,1.163560364E1,1.487811037E1
8.357612292E0,6.262826385E0,6.776109009E0,1.061023590E1,1.406114339E1
8.367637292E0,5.498366089E0,6.766079865E0,9.869276733E0,1.316869354E1
8.377662292E0,4.764292603E0,6.437363434E0,9.303303680E0,1.227556888E1
8.387686292E0,4.194876709E0,6.112089844E0,8.985514526E0,1.164878123E1
8.397711292E0,3.490890656E0,5.971831512E0,8.279732208E0,1.078902473E1
8.407735292E0,2.777025146E0,5.767207031E0,7.567363586E0,9.911485119E0
8.417760292E0,2.193837891E0,5.612279205E0,7.051985321E0,9.275834169E0
8.427784292E0,1.904040527E0,5.364394684E0,6.455176392E0,8.606474476E0
8.437809292E0,1.741328888E0,5.055886230E0,5.693709869E0,7.811052679E0
8.447833292E0,1.479673004E0,4.900509338E0,5.038222961E0,7.182486657E0
8.457858292E0,1.372346191E0,4.891078949E0,4.834197235E0,7.012520963E0
8.467883292E0,1.353036346E0,4.941973114E0,4.805157623E0,7.024481860E0
8.477907292E0,1.452729034E0,4.786296844E0,4.853956146E0,6.969931807E0
8.487932292E0,1.701811066E0,4.603227539E0,5.001249847E0,7.007022529E0
8.497956292E0,2.189197540E0,4.571194153E0,5.063520355E0,7.164331109E0
8.507981292E0,2.700683899E0,4.744833069E0,5.037474518E0,7.428545207E0
8.518005292E0,3.073408813E0,4.945266266E0,4.824018402E0,7.561260062E0
8.528030292E0,3.439846802E0,4.988376617E0,4.258943481E0,7.406419302E0
8.538055292E0,3.644620972E0,5.126838684E0,3.923041992E0,7.413365996E0
8.548079292E0,3.718417511E0,5.300178223E0,3.989503784E0,7.604910152E0
8.558104292E0,3.782933350E0,5.359155579E0,4.233197021E0,7.807117923E0
8.568128292E0,4.040547638E0,5.425617371E0,4.725223846E0,8.251732513E0
8.578153292E0,4.226910095E0,5.657634888E0,5.443280640E0,8.916552338E0
8.588177292E0,4.371359711E0,5.936504974E0,6.031856689E0,9.525448659E0
8.598202292E0,5.013524323E0,6.290069733E0,6.945107574E0,1.062708439E1
8.608222417E0,5.665568390E0,6.560557251E0,7.968529358E0,1.177442299E1
8.618247417E0,5.858966217E0,6.941664734E0,8.294551392E0,1.230096651E1
8.628272417E0,5.943839722E0,7.486232300E0,8.302185516E0,1.266093160E1
8.638296417E0,6.006409607E0,7.767497406E0,8.296647034E0,1.285477827E1
8.648321417E0,5.832171936E0,7.768994293E0,8.205037537E0,1.271590118E1
8.658345417E0,5.577102356E0,7.934400330E0,8.263266449E0,1.274128532E1
8.668370417E0,5.346731415E0,8.351433105E0,8.550070038E0,1.309342084E1
8.678394417E0,5.474116516E0,8.600066071E0,8.873098297E0,1.351513823E1
8.688419417E0,5.858666840E0,8.789571991E0,8.908873901E0,1.381841478E1
8.698443417E0,6.214776306E0,8.858728180E0,9.147028656E0,1.416928519E1
8.708468417E0,5.853278046E0,9.038354645E0,9.332343292E0,1.424939823E1
8.718493417E0,5.753735046E0,8.545579376E0,1.013856674E1,1.445416651E1
8.728517417E0,5.328619080E0,8.135132904E0,1.099643280E1,1.467978552E1
8.738542417E0,4.646188202E0,7.757468262E0,1.125284958E1,1.443578894E1
8.748566417E0,4.137096863E0,7.351362762E0,1.151585266E1,1.427490691E1
8.758591417E0,3.826193390E0,7.021149445E0,1.137095398E1,1.390089529E1
8.768615417E0,3.567082214E0,6.696324921E0,1.069855225E1,1.311578679E1
8.778640417E0,3.466042328E0,6.312223663E0,9.763746185E0,1.213212086E1
8.788664417E0,3.442840576E0,5.826483765E0,8.923693085E0,1.119970368E1
8.798689417E0,3.188818817E0,5.477858734E0,8.284073181E0,1.043078953E1
8.808714417E0,2.824326782E0,5.218148804E0,7.434290314E0,9.511812192E0
8.818738417E0,2.502196655E0,4.872667236E0,6.720873871E0,8.670295248E0
8.828763417E0,2.354603577E0,4.644092560E0,6.337820435E0,8.202421689E0
8.838787417E0,2.417023773E0,4.499942322E0,6.059249725E0,7.925023158E0
8.848812417E0,2.496059418E0,4.340523834E0,5.800288239E0,7.662493290E0
8.858836417E0,2.375260620E0,4.300856323E0,5.483995972E0,7.362977655E0
8.868861417E0,2.017953644E0,4.292473755E0,5.390590210E0,7.180245863E0
8.878886417E0,1.747615814E0,4.188140717E0,5.364993439E0,7.026936622E0
8.888910417E0,1.883682861E0,3.904779968E0,5.485941925E0,6.992218999E0
8.898935417E0,2.438878326E0,3.622017975E0,5.783822479E0,7.247050722E0
8.908959417E0,2.722987518E0,3.494333496E0,6.072272644E0,7.516483398E0
8.918984417E0,2.207309875E0,3.621868286E0,6.457272034E0,7.725704426E0
8.929008417E0,1.515149231E0,3.759432220E0,6.747967529E0,7.871726214E0
8.939033417E0,1.265169067E0,3.586691437E0,6.779102783E0,7.773110238E0
8.949057417E0,1.259181519E0,3.247796173E0,6.726711731E0,7.575115101E0
8.959082417E0,1.356179810E0,3.090623016E0,6.343807983E0,7.185754938E0
8.969107417E0,1.705852661E0,3.035387878E0,5.993087311E0,6.931133269E0
8.979131417E0,1.970801697E0,3.036435699E0,5.420228577E0,6.517889145E0
8.989156417E0,2.151026917E0,3.228336639E0,4.925207977E0,6.269509381E0
8.999180417E0,2.002685394E0,3.603007507E0,5.135071564E0,6.584935220E0
9.009205417E0,1.526974640E0,4.064497833E0,5.585185547E0,7.074326242E0
9.019229417E0,9.951306152E-1,4.892575836E0,6.059399414E0,7.851363226E0
9.029254417E0,6.816824341E-1,5.044659576E0,6.267317047E0,8.074190000E0
9.039278417E0,8.273295593E-1,4.236340485E0,6.887776794E0,8.128500727E0
9.049303417E0,1.237776031E0,4.540507965E0,8.650062103E0,9.847429943E0
9.059328417E0,4.586462402E-1,5.148693237E0,9.325457611E0,1.066224920E1
9.069352417E0,-2.874023438E-2,5.782325592E0,8.349337463E0,1.015615830E1
9.079377417E0,2.570155334E-1,6.310427399E0,9.041947174E0,1.102925018E1
9.089401417E0,4.549040222E-1,6.157146149E0,9.368118896E0,1.121958279E1
9.099426417E0,4.264631653E-1,5.781427460E0,9.205257568E0,1.087858176E1
9.109450417E0,7.872129822E-1,5.657485199E0,9.168733521E0,1.080243109E1
9.119475417E0,9.859996033E-1,5.849086761E0,8.514144745E0,1.037664068E1
9.129500417E0,4.137396240E-1,6.016738129E0,8.389004974E0,1.033187895E1
9.139524417E0,-2.426454163E-1,6.083798676E0,8.313861237E0,1.030493919E1
9.149549417E0,-6.599775696E-1,6.380481720E0,8.172854462E0,1.038949794E1
9.159573417E0,-8.286767578E-1,6.561006317E0,8.038883057E0,1.040947404E1
9.169598417E0,-8.113128662E-1,6.454577637E0,7.795489197E0,1.015329763E1
9.179622417E0,-7.812254333E-1,6.257736969E0,7.542066193E0,9.831192583E0
9.189647417E0,-7.104226685E-1,6.307134247E0,7.503446503E0,9.827835580E0
9.199671417E0,-4.936734009E-1,6.352489929E0,7.749534760E0,1.003260339E1
9.209696417E0,-1.188528442E-1,6.042334900E0,8.357270966E0,1.031348220E1
9.219721417E0,3.408412170E-1,5.528154144E0,8.578361206E0,1.021102061E1
9.229745417E0,5.459147644E-1,5.123096466E0,8.357570343E0,9.817999917E0
9.239770417E0,2.911445618E-1,5.189857635E0,8.049361267E0,9.581837206E0
9.249794417E0,2.185455322E-2,5.747148743E0,7.613467712E0,9.539134494E0
9.259819417E0,-2.154020691E-1,6.298003235E0,7.235952759E0,9.595324649E0
9.269843417E0,-4.007167053E-1,6.625522156E0,6.981481934E0,9.633234540E0
9.279868417E0,-5.164260864E-1,6.763984222E0,7.187303925E0,9.883092440E0
9.289892417E0,-4.270619202E-1,6.691983948E0,7.867938538E0,1.033776997E1
9.299917417E0,-1.380130005E-1,6.360722809E0,8.603209534E0,1.070014283E1
9.309942417E0,1.234931946E-1,5.990392914E0,9.314829712E0,1.107547337E1
9.319966417E0,2.874023438E-1,5.624403992E0,9.857301636E0,1.135266118E1
9.329991417E0,3.400927734E-1,5.330115967E0,1.021116577E1,1.152361513E1
9.340015417E0,4.188290405E-1,5.124743042E0,1.031834290E1,1.152851288E1
9.350040417E0,5.056484985E-1,4.814138947E0,9.987381134E0,1.109862136E1
9.360064417E0,5.388793945E-1,4.513114929E0,9.101074219E0,1.017291253E1
9.370089417E0,4.288581848E-1,4.592150574E0,8.255632324E0,9.456597237E0
9.380114417E0,-8.831634521E-3,5.053790588E0,7.732769623E0,9.237781300E0
9.390138417E0,-5.366340637E-1,5.591322784E0,7.428901520E0,9.313401333E0
9.400163417E0,-8.663983154E-1,5.813011780E0,7.564818878E0,9.579573929E0
9.410187417E0,-8.735833740E-1,5.704786835E0,7.615563354E0,9.555341226E0
9.420212417E0,-5.417234802E-1,5.292993164E0,7.506889343E0,9.201229732E0
9.430236417E0,-3.367996216E-2,4.772525482E0,7.874524841E0,9.207946313E0
9.440261417E0,5.054988098E-1,4.381688232E0,8.549770660E0,9.620462523E0
9.450285417E0,7.339237976E-1,3.992796936E0,8.939111023E0,9.817778638E0
9.460310417E0,7.908055115E-1,3.697161713E0,8.650361481E0,9.440504851E0
9.470335417E0,6.798861694E-1,3.602259064E0,8.335416412E0,9.105914690E0
9.480359417E0,3.525169373E-1,3.722309418E0,7.863597565E0,8.707239646E0
9.490384417E0,1.035845947E-1,3.912713470E0,6.943011932E0,7.970286768E0
9.500408417E0,-1.047821045E-3,3.986959076E0,6.704408112E0,7.800316141E0
9.510433417E0,2.052232361E-1,3.967798920E0,7.243586884E0,8.261664226E0
9.520457417E0,6.882687378E-1,3.763623505E0,7.240742798E0,8.189440274E0
9.530482417E0,9.759704590E-1,3.443888397E0,7.458090820E0,8.272605654E0
9.540506417E0,1.307530975E0,3.059936829E0,7.516619110E0,8.220244126E0
9.550531417E0,1.273701324E0,2.819087677E0,8.066575470E0,8.639398718E0
9.560556417E0,4.646337891E-1,3.116219788E0,8.963809662E0,9.501399580E0
9.570580417E0,-5.927673340E-1,4.007167053E0,8.863518219E0,9.745291998E0
9.580605417E0,-1.109492798E0,4.531676331E0,8.457861786E0,9.659321437E0
9.590629417E0,-1.252595215E0,4.300706635E0,7.916287994E0,9.095751093E0
9.600654417E0,-1.180594940E0,4.108656006E0,7.276817780E0,8.439605179E0
9.610678417E0,-1.045276337E0,4.194128265E0,6.687792664E0,7.963032415E0
9.620703417E0,-9.481283569E-1,4.179009705E0,6.568790131E0,7.842963297E0
9.630728417E0,-7.568261719E-1,4.109853516E0,6.739734650E0,7.930176853E0
9.640752417E0,-3.947291565E-1,4.018393707E0,7.196285248E0,8.251655619E0
9.650777417E0,2.582130432E-1,3.750450897E0,7.225923615E0,8.145337807E0
9.660801417E0,1.043330383E0,3.160377960E0,6.805298309E0,7.575527191E0
9.670826417E0,1.624721375E0,2.680924988E0,6.674769745E0,7.374254503E0
9.680850417E0,1.892364807E0,2.786006470E0,6.601721649E0,7.411181103E0
9.690875417E0,1.962119751E0,3.087030487E0,6.721921692E0,7.652705559E0
9.700899417E0,1.783840485E0,3.322790222E0,7.020550690E0,7.969388541E0
9.710924417E0,1.634002075E0,3.491040344E0,7.227719879E0,8.191291725E0
9.720949417E0,1.852248230E0,3.393892365E0,7.586673431E0,8.515100859E0
9.730973417E0,2.127376099E0,3.199297028E0,7.901768188E0,8.786305881E0
9.740998417E0,2.205513611E0,2.919977875E0,7.996820526E0,8.794299267E0
9.751022417E0,1.706301727E0,2.871628418E0,9.084907837E0,9.679528179E0
9.761047417E0,1.465751953E0,3.018922119E0,1.061472656E1,1.113259806E1
9.771071417E0,2.146835632E0,3.094215546E0,1.140538239E1,1.201107074E1
9.781096417E0,3.425776062E0,3.257226562E0,1.198497711E1,1.288352215E1
9.791121417E0,4.766837311E0,3.699107666E0,1.150627258E1,1.299232251E1
9.801145417E0,5.670508118E0,3.848497009E0,1.069840256E1,1.270517252E1
9.811170417E0,5.973927155E0,3.675157471E0,1.021625519E1,1.239219344E1
9.821194417E0,5.695206757E0,3.495381317E0,9.416468353E0,1.154655562E1
9.831219417E0,5.648204498E0,3.462449799E0,1.022972717E1,1.218762039E1
9.841243417E0,5.697901154E0,3.801644440E0,1.087952591E1,1.285623047E1
9.851268417E0,5.037025452E0,4.022135925E0,1.194635742E1,1.357441190E1
9.861292417E0,4.633913727E0,3.814068604E0,1.237371872E1,1.375242490E1
9.871317417E0,4.584666138E0,3.523822174E0,1.137604340E1,1.276130282E1
9.881342417E0,4.459975433E0,3.332819366E0,1.005563919E1,1.149412656E1
9.891366417E0,4.297114105E0,3.410058746E0,9.859996033E0,1.128331565E1
9.901391417E0,4.142335968E0,3.821702728E0,9.148824921E0,1.074548075E1
9.911415417E0,3.406017151E0,4.735252991E0,7.646997986E0,9.617699928E0
9.921440417E0,2.522105255E0,5.794300690E0,5.604196014E0,8.446416303E0
9.931464417E0,1.548080750E0,6.768624573E0,3.803590393E0,7.916952222E0
9.941489417E0,5.059478760E-1,7.722141724E0,2.077380066E0,8.012675208E0
9.951514417E0,-2.155517578E-2,8.187523956E0,1.442550201E0,8.313661302E0
9.961538417E0,-1.606159973E-1,8.037535858E0,1.663790131E0,8.209505330E0
9.971563417E0,-7.993377686E-2,7.697592773E0,1.696571960E0,7.882745736E0
9.981587417E0,3.924838257E-1,7.582332458E0,1.896406403E0,7.825737429E0
9.991612417E0,1.188977509E0,7.319029999E0,2.377655640E0,7.786855205E0
1.000163642E1,1.882635040E0,7.002737732E0,3.599564667E0,8.095647981E0
1.001166142E1,2.436333618E0,7.188202057E0,4.736450500E0,8.946503991E0
1.002168542E1,3.128344574E0,7.310946808E0,4.728516998E0,9.251775830E0
1.003171042E1,3.523373108E0,7.255561981E0,4.276756439E0,9.129511672E0
1.004173542E1,3.644171906E0,7.403604126E0,3.744912415E0,9.061882361E0
1.005175942E1,4.002227325E0,7.591164093E0,3.865112457E0,9.411837767E0
1.006178442E1,4.633464661E0,7.396868134E0,4.641996918E0,9.885888343E0
1.007180842E1,5.397924957E0,7.014862518E0,5.127587128E0,1.022927367E1
1.008183342E1,6.068081360E0,6.664890289E0,5.051694946E0,1.033256966E1
1.009185742E1,6.221362610E0,6.326444092E0,5.611231384E0,1.049834107E1
1.010188242E1,6.452332306E0,6.274053040E0,6.891968079E0,1.133558811E1
1.011190742E1,6.990313568E0,6.618786163E0,8.619974670E0,1.292194944E1
1.012193142E1,8.043523407E0,6.690187683E0,1.248538651E1,1.628931417E1
1.013195642E1,9.841434631E0,6.572682037E0,1.877665375E1,2.219497039E1
1.014198042E1,1.263627274E1,6.630461884E0,2.646915710E1,3.007082791E1
1.015200542E1,1.538680298E1,6.615642700E0,3.211571503E1,3.622070659E1
1.016202942E1,1.669837555E1,7.136709137E0,3.478107239E1,3.923635253E1
1.017205442E1,1.776400955E1,8.105195160E0,3.451432709E1,3.965467183E1
1.018207842E1,1.984767654E1,7.245532837E0,3.187471619E1,3.824167285E1
1.019210342E1,2.129441803E1,6.242768097E0,2.829880234E1,3.596173809E1
1.020212842E1,2.061453186E1,6.349346466E0,2.348690872E1,3.188899506E1
1.021215242E1,1.816742065E1,7.100933533E0,1.796908310E1,2.652105537E1
1.022217742E1,1.498354156E1,7.870483246E0,1.289538391E1,2.127773368E1
1.023220142E1,1.202239929E1,8.360863495E0,9.622589722E0,1.752245291E1
1.024222642E1,1.007479935E1,9.141190796E0,7.552245026E0,1.555954228E1
1.025225042E1,9.834099884E0,1.003573059E1,4.453688507E0,1.473976765E1
1.026227542E1,9.905950470E0,1.046683411E1,1.279988251E0,1.446792455E1
1.027229942E1,9.136849823E0,1.019619690E1,-4.640350342E-3,1.369103639E1
1.028232442E1,8.150700531E0,9.209598541E0,3.900888062E-1,1.230458426E1
1.029234942E1,6.756499786E0,8.264913025E0,1.199755096E0,1.074236887E1
1.030237342E1,5.211861877E0,6.980434113E0,1.535806274E0,8.845827578E0
1.031239842E1,3.659739532E0,5.713917847E0,1.578766937E0,6.966710533E0
1.032242242E1,2.140399017E0,4.850513306E0,1.065334625E0,5.407746772E0
1.033244742E1,7.679031372E-1,4.080664215E0,1.526824951E-1,4.155094176E0
1.034247142E1,-1.630110168E-1,3.439547424E0,-9.340576172E-1,3.567845668E0
1.035249642E1,-2.168989563E-1,2.634222107E0,-1.494791565E0,3.036539657E0
1.036252142E1,1.746867371E-1,1.795366516E0,-1.466949463E0,2.325037013E0
1.037254542E1,6.376739502E-1,1.202000427E0,-1.424886932E0,1.970212137E0
1.038257042E1,8.572673035E-1,9.958790588E-1,-1.635498962E0,2.097984553E0
1.039259442E1,8.318202209E-1,1.019230499E0,-1.686692505E0,2.139085622E0
1.040261942E1,6.893165588E-1,1.202449493E0,-1.626068573E0,2.136619083E0
1.041264342E1,4.589456177E-1,1.301693115E0,-1.608255615E0,2.119321158E0
1.042266842E1,2.154020691E-1,1.369202728E0,-1.639091492E0,2.146563552E0
1.043269242E1,-2.263293457E-1,1.502874756E0,-1.291214905E0,1.994265137E0
1.044271742E1,-5.275030518E-1,1.768871613E0,-6.343807983E-1,1.951821008E0
1.045274242E1,-7.054829407E-1,1.847009125E0,2.299218750E-1,1.990480584E0
1.046276642E1,-6.126759338E-1,1.829495544E0,1.055604858E0,2.199256093E0
1.047279142E1,-3.207829285E-1,1.898052979E0,1.333427124E0,2.341694833E0
1.048281542E1,-4.849914551E-2,1.710343323E0,1.121767273E0,2.045968784E0
1.049284042E1,3.637435913E-2,1.439855804E0,7.782316589E-1,1.637117084E0
1.050286442E1,1.990859985E-2,1.266516266E0,3.941304016E-1,1.326574000E0
1.051288942E1,-6.286926270E-2,1.180744629E0,-1.621128845E-1,1.193478534E0
1.052291442E1,-2.704875183E-1,9.651928711E-1,-5.502557373E-1,1.143478094E0
1.053293842E1,-5.198689270E-1,7.738906860E-1,-4.249662781E-1,1.024581296E0
1.054296342E1,-4.179309082E-1,6.587800598E-1,-9.580078125E-3,7.802238071E-1
1.055298742E1,2.993774414E-2,4.834945679E-1,3.171903992E-1,5.790276462E-1
1.056301242E1,1.395098877E-1,5.104385376E-1,2.730322266E-1,5.954469802E-1
1.057303642E1,9.939331055E-2,5.345384216E-1,1.580712891E-1,5.662127575E-1
1.058306142E1,-7.963439941E-2,5.183720398E-1,-2.335144043E-2,5.249728555E-1
1.059308642E1,-2.499801636E-1,6.752458191E-1,-3.411405945E-1,7.967583721E-1
1.060311042E1,-2.390528870E-1,8.824150085E-1,-7.453001404E-1,1.179523136E0
1.061313558E1,-1.248403931E-1,1.011296997E0,-9.819580078E-1,1.415114225E0
1.062315958E1,-3.457809448E-2,1.158291321E0,-1.190474396E0,1.661343949E0
1.063318458E1,2.709365845E-2,1.252295837E0,-1.171314240E0,1.714921566E0
1.064320858E1,2.004331970E-1,1.236728210E0,-1.139430542E0,1.693508811E0
1.065323358E1,4.932243347E-1,1.159039764E0,-1.261875916E0,1.782967820E0
1.066325758E1,5.810916138E-1,1.260379028E0,-1.127605133E0,1.788215897E0
1.067328258E1,5.063969421E-1,1.579066315E0,-9.871971130E-1,1.929882491E0
1.068330758E1,4.911286926E-1,2.017354889E0,-6.557862854E-1,2.177380029E0
1.069333158E1,6.709048462E-1,2.467768250E0,4.019142151E-1,2.588731056E0
1.070335658E1,1.203048248E0,3.069516907E0,1.710642700E0,3.714237146E0
1.071338058E1,2.813848572E0,3.417692871E0,3.499273224E0,5.642985153E0
1.072340558E1,4.322112122E0,3.941753082E0,6.468498688E0,8.721212406E0
1.073342958E1,5.714366913E0,6.516848145E0,8.777447205E0,1.233559396E1
1.074345458E1,7.691305847E0,1.032433044E1,1.043764481E1,1.657384729E1
1.075347858E1,9.849667511E0,1.322829163E1,1.413465683E1,2.172077745E1
1.076350358E1,1.345102844E1,1.475616440E1,1.853296051E1,2.724234166E1
1.077352858E1,1.827848969E1,1.476230164E1,2.142554535E1,3.179752708E1
1.078355258E1,2.301149734E1,1.397284332E1,2.436722809E1,3.631158445E1
1.079357758E1,2.693858093E1,1.329520248E1,2.565724548E1,3.950625011E1
1.080360158E1,2.811588272E1,1.152378616E1,2.396800827E1,3.870098098E1
1.081362658E1,2.452215591E1,9.440717926E0,2.298245773E1,3.490926308E1
1.082365058E1,1.812925003E1,8.951984253E0,2.288306442E1,3.053591928E1
1.083367558E1,1.194890213E1,9.798174591E0,2.298305649E1,2.769478964E1
1.084370058E1,8.088280334E0,1.007090744E1,2.213132767E1,2.562497063E1
1.085372458E1,6.210435333E0,9.138496399E0,2.052905960E1,2.331359928E1
1.086374958E1,4.671335907E0,8.873397675E0,1.940819046E1,2.184574152E1
1.087377358E1,3.206482086E0,9.786199493E0,1.771266632E1,2.048877195E1
1.088379858E1,2.327659607E0,1.028376480E1,1.506931320E1,1.839179214E1
1.089382258E1,2.261347504E0,9.945767670E0,1.264240997E1,1.624384551E1
1.090384758E1,2.723137207E0,9.192084961E0,1.051907547E1,1.423238739E1
1.091387158E1,3.350632324E0,8.436456299E0,8.788374481E0,1.263471637E1
1.092389658E1,3.756139069E0,7.763904877E0,7.428751831E0,1.138302040E1
1.093392158E1,4.000431061E0,6.832541656E0,6.515950012E0,1.025400793E1
1.094394558E1,4.073628845E0,5.847889252E0,6.177503815E0,9.431532964E0
1.095397058E1,4.038751373E0,5.072651367E0,6.372548218E0,9.091351678E0
1.096399458E1,3.844305725E0,4.336931305E0,6.501579895E0,8.709661347E0
1.097401958E1,3.548071747E0,3.488795013E0,6.259233856E0,7.996156091E0
1.098404358E1,3.106639709E0,2.780917053E0,6.007307739E0,7.312486322E0
1.099406858E1,2.522554321E0,2.429897003E0,5.714516602E0,6.702490562E0
1.100409358E1,1.911974030E0,2.251318359E0,5.410199432E0,6.163954651E0
1.101411758E1,1.316362610E0,2.080373840E0,5.152435455E0,5.710372751E0
1.102414258E1,7.584727478E-1,1.976639557E0,4.868326263E0,5.308764965E0
1.103416658E1,3.588038635E-1,1.797761536E0,4.599635010E0,4.951497650E0
1.104419158E1,1.043330383E-1,1.658850403E0,4.495301971E0,4.792745545E0
1.105421558E1,1.342707825E-1,1.465302887E0,4.492158508E0,4.727010605E0
1.106424058E1,3.659889221E-1,1.215472412E0,4.417314148E0,4.596083698E0
1.107426458E1,6.496490479E-1,1.127754822E0,4.185446320E0,4.383130812E0
1.108428958E1,9.491761780E-1,1.191372528E0,4.101620636E0,4.375339502E0
1.109431458E1,9.231303406E-1,1.420845337E0,4.202959900E0,4.531649040E0
1.110433858E1,5.399272156E-1,2.013013916E0,4.049528961E0,4.554385934E0
1.111436358E1,1.121168518E-1,2.811154175E0,3.820505219E0,4.744619912E0
1.112438758E1,-3.055146790E-1,3.461252289E0,3.744912415E0,5.108617780E0
1.113441258E1,-7.466473389E-1,4.034859467E0,3.789220276E0,5.585316774E0
1.114443658E1,-9.340576172E-1,4.551734619E0,3.832929382E0,6.023462403E0
1.115446158E1,-8.719367981E-1,5.080285492E0,3.733835449E0,6.364833197E0
1.116448558E1,-6.033952332E-1,5.679788818E0,3.868704987E0,6.898620522E0
1.117451058E1,-9.325607300E-2,5.996380463E0,4.053869934E0,7.238724804E0
1.118453558E1,3.694317627E-1,6.137237549E0,4.251608734E0,7.475181696E0
1.119455958E1,7.261399841E-1,6.275100861E0,4.688250732E0,7.866629839E0
1.120458458E1,9.845027161E-1,6.439908142E0,5.174739075E0,8.319830946E0
1.121460858E1,1.060095520E0,6.609655151E0,5.384902039E0,8.591188142E0
1.122463358E1,9.538165283E-1,6.862629089E0,5.478008423E0,8.832554572E0
1.123465758E1,1.049617310E0,7.053931274E0,5.827232208E0,9.209575350E0
1.124468258E1,1.357527008E0,7.007378082E0,5.790708160E0,9.191220167E0
1.125470758E1,1.380130005E0,6.925348663E0,5.164111176E0,8.748328822E0
1.126473158E1,1.030157776E0,6.964417419E0,5.035977631E0,8.655946264E0
1.127475658E1,4.397854614E-1,7.373067627E0,5.429060211E0,9.166800547E0
1.128478058E1,1.437011719E-2,7.853718109E0,5.921685791E0,9.836028530E0
1.129480558E1,-9.550140381E-2,7.987090759E0,6.370602264E0,1.021701094E1
1.130482958E1,-1.050814819E-1,7.888445892E0,6.829547882E0,1.043462242E1
1.131485458E1,-2.794688416E-1,7.883356476E0,7.194638672E0,1.067652742E1
1.132487958E1,-6.408174133E-1,8.006849670E0,7.456893311E0,1.096018004E1
1.133490358E1,-9.258247375E-1,8.280031586E0,7.851622467E0,1.144832083E1
1.134492858E1,-1.119072876E0,8.738378448E0,8.236921234E0,1.206061580E1
1.135495258E1,-1.197210388E0,9.145232391E0,8.243507538E0,1.237028717E1
1.136497758E1,-1.240021362E0,9.337432709E0,9.028175812E0,1.304734690E1
1.137500158E1,-1.031055908E0,9.170679474E0,1.009650421E1,1.367859041E1
1.138502658E1,-6.499484253E-1,8.637787628E0,1.092069031E1,1.393898436E1
1.139505058E1,-6.242019653E-2,7.824528809E0,1.209230392E1,1.440315804E1
1.140507558E1,4.300556946E-1,7.228019257E0,1.295780411E1,1.484364839E1
1.141510058E1,4.758604431E-1,7.007078705E0,1.304851547E1,1.481854754E1
1.142512458E1,2.008822632E-1,6.893015900E0,1.269075943E1,1.444331668E1
1.143514958E1,8.068222046E-2,6.684649200E0,1.213825836E1,1.385742980E1
1.144517358E1,1.793270874E-1,6.453380127E0,1.173409882E1,1.339280957E1
1.145519858E1,3.649411011E-1,6.267317047E0,1.122141495E1,1.285817244E1
1.146522258E1,3.808081055E-1,6.254144440E0,1.074196198E1,1.243579851E1
1.147524758E1,2.395019531E-1,6.152056732E0,1.015278717E1,1.187367890E1
1.148527158E1,1.954934692E-1,5.980812836E0,9.554032288E0,1.127332572E1
1.149529658E1,2.588117981E-1,6.029611359E0,8.907526703E0,1.075951805E1
1.150532158E1,3.658392334E-1,5.918093262E0,8.371491394E0,1.025863219E1
1.151534558E1,5.358856201E-1,5.587430878E0,7.771838379E0,9.586867528E0
1.152537058E1,6.423143005E-1,5.318140869E0,6.963519287E0,8.785544424E0
1.153539458E1,7.890092468E-1,5.080884247E0,6.674470367E0,8.425347174E0
1.154541958E1,6.932084656E-1,4.951553192E0,6.625372467E0,8.300239594E0
1.155544358E1,4.909790039E-1,4.910837860E0,6.829398193E0,8.426035162E0
1.156546858E1,2.050735474E-1,4.788392487E0,7.248975677E0,8.690132688E0
1.157549358E1,-4.670288086E-2,4.632416840E0,7.107519836E0,8.484002897E0
1.158551758E1,-2.058219910E-1,4.511917419E0,6.590345306E0,7.989518931E0
1.159554258E1,-2.948867798E-1,4.359085236E0,5.931265869E0,7.366715490E0
1.160556658E1,-3.767665100E-1,4.273313599E0,5.331313477E0,6.842957365E0
1.161559167E1,-3.604504395E-1,4.229754181E0,4.862638092E0,6.454920152E0
1.162561567E1,-2.363584900E-1,4.164190521E0,4.618645477E0,6.223201272E0
1.163564067E1,-1.423539734E-1,4.033063202E0,4.610562286E0,6.127246367E0
1.164566467E1,-1.215472412E-1,3.981570282E0,4.692442017E0,6.155216302E0
1.165568967E1,-1.541793823E-1,4.167184296E0,5.046306152E0,6.546327369E0
1.166571467E1,-1.745370483E-1,4.267775116E0,5.366939392E0,6.859184067E0
1.167573867E1,-1.788780212E-1,4.190535736E0,5.805078278E0,7.161809891E0
1.168576367E1,-3.224295044E-1,4.173920288E0,6.374045105E0,7.625878465E0
1.169578767E1,-4.209246826E-1,4.222269745E0,6.851103058E0,8.058681809E0
1.170581267E1,-4.305047607E-1,4.178261261E0,7.265890503E0,8.392637626E0
1.171583667E1,-5.563929749E-1,4.106260986E0,7.558981018E0,8.620275312E0
1.172586167E1,-6.215075684E-1,4.172872467E0,7.853867798E0,8.915288872E0
1.173588667E1,-4.543052673E-1,4.332141266E0,8.283773804E0,9.359206679E0
1.174591067E1,-2.700384521E-1,4.659959564E0,8.891360321E0,1.004213285E1
1.175593567E1,-2.234852600E-1,5.193001099E0,9.273515625E0,1.063086535E1
1.176595967E1,-2.424957275E-2,5.544619904E0,9.598040771E0,1.108448396E1
1.177598467E1,2.897973633E-1,5.366041260E0,1.029993118E1,1.161752829E1
1.178600867E1,4.959187317E-1,5.369633789E0,1.074884766E1,1.202566540E1
1.179603367E1,5.977070618E-1,5.745352478E0,1.050350784E1,1.198707662E1
1.180605767E1,8.699908447E-1,6.010151825E0,1.000534378E1,1.170408959E1
1.181608267E1,1.256487122E0,5.870192871E0,9.861792297E0,1.154525320E1
1.182610767E1,1.535656586E0,5.543422394E0,9.569300537E0,1.116509229E1
1.183613167E1,1.657503204E0,5.349575500E0,9.145382080E0,1.072395861E1
1.184615667E1,1.728455658E0,5.399122467E0,8.734785919E0,1.041319199E1
1.185618067E1,1.532812500E0,5.617817688E0,8.485404510E0,1.029133030E1
1.186620567E1,1.205293579E0,5.893244934E0,8.385562134E0,1.031991864E1
1.187622967E1,9.431886292E-1,6.089786224E0,8.446934509E0,1.045589803E1
1.188625467E1,8.119116211E-1,6.195017395E0,8.634793854E0,1.065819431E1
1.189627867E1,8.120613098E-1,6.215075684E0,8.940607910E0,1.091884056E1
1.190630367E1,8.493338013E-1,6.039790192E0,9.325008545E0,1.114254091E1
1.191632867E1,1.066083069E0,5.752537537E0,9.340276794E0,1.102129719E1
1.192635267E1,1.393152924E0,5.523513794E0,9.364226990E0,1.096078587E1
1.193637767E1,1.623374176E0,5.448819122E0,9.503138123E0,1.107405110E1
1.194640167E1,1.815724182E0,5.282215576E0,9.430688782E0,1.096068185E1
1.195642667E1,1.984273682E0,5.135969696E0,9.158105621E0,1.068580485E1
1.196645067E1,1.993853760E0,5.140460358E0,8.978628845E0,1.053639224E1
1.197647567E1,1.863923950E0,5.294639740E0,8.658444672E0,1.031872505E1
1.198650067E1,1.712139587E0,5.313500519E0,8.169710999E0,9.894891992E0
1.199652467E1,1.470092926E0,5.326822815E0,7.977211304E0,9.704231793E0
1.200654967E1,1.189276886E0,5.558241577E0,7.990982666E0,9.806336365E0
1.201657367E1,1.101559296E0,5.642965393E0,8.295299835E0,1.009299216E1
1.202659867E1,1.229992218E0,5.481451263E0,8.348738708E0,1.006283394E1
1.203662267E1,1.348395996E0,5.328918457E0,8.259823608E0,9.921704981E0
1.204664767E1,1.391656036E0,5.344785461E0,8.159981232E0,9.853361449E0
1.205667167E1,1.409019928E0,5.451363831E0,8.009993134E0,9.790949636E0
1.206669667E1,1.479972382E0,5.504952393E0,7.836503906E0,9.690490832E0
1.207672167E1,1.651515656E0,5.428611145E0,7.722441101E0,9.582975503E0
1.208674567E1,1.871857452E0,5.375022583E0,7.492070160E0,9.408816789E0
1.209677067E1,2.027982788E0,5.378764801E0,7.456144867E0,9.414771439E0
1.210679467E1,2.032473450E0,5.436544647E0,7.564369812E0,9.534498239E0
1.211681967E1,1.992805939E0,5.513933716E0,7.550897827E0,9.559853478E0
1.212684367E1,1.858984222E0,5.474565582E0,7.679630127E0,9.612669220E0
1.213686867E1,1.697021027E0,5.287454681E0,7.767796783E0,9.548598025E0
1.214689267E1,1.634600830E0,5.158423004E0,7.845934296E0,9.530998517E0
1.215691767E1,1.614093475E0,5.108576660E0,7.823031921E0,9.481702468E0
1.216694267E1,1.808688812E0,4.852309570E0,7.793094177E0,9.356739830E0
1.217696667E1,1.445244598E0,4.801265717E0,7.608677673E0,9.112236848E0
1.218699167E1,1.421893158E0,4.981640625E0,7.411238251E0,9.042398790E0
1.219701567E1,1.595981140E0,4.877906342E0,7.685617676E0,9.241744702E0
1.220704067E1,1.570384369E0,4.878654785E0,7.723788300E0,9.269535332E0
1.221706467E1,1.574276276E0,4.788242798E0,7.603887634E0,9.122758466E0
1.222708967E1,1.599274292E0,4.801415405E0,7.573201447E0,9.108493196E0
1.223711467E1,1.644929352E0,4.900359650E0,7.618407440E0,9.206489515E0
1.224713867E1,1.576970673E0,4.929249573E0,7.466922455E0,9.085112481E0
1.225716367E1,1.420396271E0,4.934638367E0,7.175179138E0,8.823342736E0
1.226718767E1,1.278042297E0,5.040468292E0,6.817423096E0,8.574203776E0
1.227721267E1,1.117575989E0,5.209317169E0,6.557114410E0,8.448769783E0
1.228723667E1,9.398954773E-1,5.366190948E0,6.261479187E0,8.299730743E0
1.229726167E1,8.939410400E-1,5.469476166E0,6.030808868E0,8.190540624E0
1.230728567E1,8.231382751E-1,5.574258270E0,6.177054749E0,8.360975855E0
1.231731067E1,7.738906860E-1,5.699398041E0,6.496191101E0,8.676551368E0
1.232733567E1,7.220983887E-1,5.704936523E0,6.965016174E0,9.032119194E0
1.233735967E1,6.592291260E-1,5.618865509E0,7.292834473E0,9.229933223E0
1.234738467E1,5.885760498E-1,5.503455505E0,7.578440552E0,9.384412899E0
1.235740867E1,3.611988831E-1,5.488037567E0,7.959098969E0,9.674516906E0
1.236743367E1,1.158590698E-1,5.642216949E0,7.900420990E0,9.709000322E0
1.237745767E1,-2.231858826E-1,5.661377106E0,7.749534760E0,9.599806855E0
1.238748267E1,-4.730163574E-1,5.706732788E0,7.784711609E0,9.663968047E0
1.239750767E1,-6.256988525E-1,5.918991394E0,7.730374603E0,9.756262075E0
1.240753167E1,-8.083190918E-1,6.072272644E0,7.748037872E0,9.877143600E0
1.241755667E1,-9.454339600E-1,6.224655762E0,8.225694580E0,1.035867926E1
1.242758067E1,-9.734257507E-1,6.245462494E0,8.934171295E0,1.094407494E1
1.243760567E1,-7.461982727E-1,5.914500732E0,9.747280426E0,1.142574315E1
1.244762967E1,-4.782554626E-1,5.489684143E0,1.055754547E1,1.190911947E1
1.245765467E1,-2.278262329E-1,5.239404602E0,1.109956833E1,1.227614282E1
1.246767867E1,-1.074765015E-1,5.152734833E0,1.142798538E1,1.253639012E1
1.247770367E1,-5.164260864E-2,5.176086273E0,1.138352783E1,1.250516861E1
1.248772867E1,-2.088157654E-1,5.339396667E0,1.111528564E1,1.233297757E1
1.249775267E1,-4.578977966E-1,5.555696869E0,1.086051544E1,1.220763014E1
1.250777767E1,-5.409750366E-1,5.722300415E0,1.054946228E1,1.201368097E1
1.251780167E1,-4.053570557E-1,5.759123840E0,1.021071671E1,1.172990014E1
1.252782667E1,-1.832189941E-1,5.676645355E0,9.946665802E0,1.145399634E1
1.253785067E1,4.625381470E-2,5.646707611E0,9.929152222E0,1.142258771E1
1.254787567E1,2.236349487E-1,5.688171387E0,1.006761429E1,1.156555938E1
1.255789967E1,3.787124634E-1,5.670807495E0,9.959389343E0,1.146694889E1
1.256792467E1,4.351451111E-1,5.506299591E0,9.740993500E0,1.119801950E1
1.257794967E1,3.861968994E-1,5.370232544E0,9.766739960E0,1.115247753E1
1.258797367E1,3.315605164E-1,5.277874603E0,9.814939728E0,1.114894320E1
1.259799867E1,3.492237854E-1,4.952451324E0,9.947863312E0,1.111794567E1
1.260802267E1,5.053491211E-1,4.585115204E0,9.928553467E0,1.094782321E1
1.261804733E1,6.018983459E-1,4.273463287E0,9.687854004E0,1.060562517E1
1.262807133E1,5.340893555E-1,3.933669891E0,9.328002319E0,1.013758539E1
1.263809633E1,3.924838257E-1,3.635489960E0,8.701854401E0,9.438914175E0
1.264812033E1,3.501219177E-1,3.342998199E0,8.066874847E0,8.739147105E0
1.265814533E1,4.697232056E-1,3.066972198E0,7.416627045E0,8.039484752E0
1.266817033E1,5.643264771E-1,2.861748962E0,6.652017059E0,7.263429111E0
1.267819433E1,7.408094788E-1,2.677781525E0,6.190676422E0,6.785557246E0
1.268821933E1,1.015937347E0,2.552791443E0,5.975124664E0,6.576548304E0
1.269824333E1,9.261241150E-1,2.877166901E0,5.568570099E0,6.335989914E0
1.270826833E1,4.412823486E-1,3.494034119E0,5.306465149E0,6.368797132E0
1.271829233E1,-1.447489929E-1,4.063899078E0,5.136418762E0,6.551261382E0
1.272831733E1,-5.993536377E-1,4.587360535E0,4.785847778E0,6.656383434E0
1.273834233E1,-7.089257812E-1,4.976102142E0,4.476590881E0,6.730827157E0
1.274836633E1,-4.808001709E-1,5.233866119E0,4.501738586E0,6.920272658E0
1.275839133E1,-1.478924561E-1,5.408403168E0,4.531676331E0,7.057534086E0
1.276841533E1,2.701881409E-1,5.389841766E0,4.628524933E0,7.109615950E0
1.277844033E1,6.472540283E-1,5.328469391E0,5.280269623E0,7.529460214E0
1.278846433E1,1.038690033E0,5.218597870E0,6.231990509E0,8.194531495E0
1.279848933E1,1.395547943E0,5.142855377E0,7.397317200E0,9.116842504E0
1.280851333E1,1.483564911E0,5.290149078E0,8.414601746E0,1.004948579E1
1.281853833E1,1.528172150E0,5.621410217E0,8.883426819E0,1.062312736E1
1.282856333E1,1.556014252E0,5.917195129E0,9.063202972E0,1.093508238E1
1.283858733E1,1.390009460E0,6.122268677E0,9.088799744E0,1.104629263E1
1.284861233E1,1.328936462E0,6.085295563E0,9.687404938E0,1.151706163E1
1.285863633E1,1.316512299E0,6.003864899E0,1.017209702E1,1.188491296E1
1.286866133E1,1.355581055E0,5.820496216E0,1.039004379E1,1.198619148E1
1.287868533E1,1.432970123E0,5.478607178E0,1.059137512E1,1.201023592E1
1.288871033E1,1.426383820E0,5.153782654E0,1.108504852E1,1.230749151E1
1.289873533E1,1.526824951E0,4.966671753E0,1.135793106E1,1.249006088E1
1.290875933E1,1.654210052E0,4.713398438E0,1.137514526E1,1.242362530E1
1.291878433E1,1.929637299E0,4.335135040E0,1.135284164E1,1.230462959E1
1.292880833E1,2.228266296E0,3.920048218E0,1.091754684E1,1.181206069E1
1.293883333E1,2.478396149E0,3.346141663E0,1.020622604E1,1.102298333E1
1.294885733E1,2.672991486E0,2.885848846E0,9.082213440E0,9.897454623E0
1.295888233E1,2.692900085E0,2.888393555E0,8.102800140E0,9.013872548E0
1.296890633E1,2.447709961E0,3.240760803E0,7.621700592E0,8.636210659E0
1.297893133E1,2.146685944E0,3.813918915E0,7.308252411E0,8.518497011E0
1.298895633E1,1.881437531E0,4.425097961E0,7.271279297E0,8.717385030E0
1.299898033E1,1.857038269E0,4.530628510E0,7.885901184E0,9.282382416E0
1.300900533E1,1.976340179E0,4.342020721E0,8.466693420E0,9.718228333E0
1.301902933E1,1.941612396E0,4.245920563E0,9.145531769E0,1.026832272E1
1.302905433E1,1.732646942E0,4.165837097E0,9.924212494E0,1.090166307E1
1.303907833E1,1.548529816E0,4.179608459E0,1.038719971E1,1.130314068E1
1.304910333E1,1.570534058E0,4.148622894E0,1.031594788E1,1.122926666E1
1.305912733E1,1.816173248E0,4.077969818E0,9.917326813E0,1.087573879E1
1.306915233E1,2.171983337E0,4.155209198E0,9.574689331E0,1.066104830E1
1.307917733E1,2.550546112E0,4.423900452E0,9.331744537E0,1.063755784E1
1.308920133E1,2.857258301E0,4.733756104E0,9.270222473E0,1.079395185E1
1.309922633E1,3.091221771E0,4.985682220E0,9.201215973E0,1.091215170E1
1.310925033E1,3.185226288E0,5.117707672E0,8.993298340E0,1.082663444E1
1.311927533E1,3.096460876E0,4.981191559E0,9.038354645E0,1.077460876E1
1.312929933E1,3.043620758E0,4.689448242E0,9.001082153E0,1.059594413E1
1.313932433E1,2.835403748E0,4.414170685E0,8.858578491E0,1.029557333E1
1.314934933E1,2.545756073E0,4.268822937E0,8.800499268E0,1.010705252E1
1.315937333E1,2.364333344E0,4.234394531E0,8.690478058E0,9.952114252E0
1.316939833E1,2.158960419E0,4.306843872E0,8.638087006E0,9.890731082E0
1.317942233E1,1.875000916E0,4.284240875E0,8.783434753E0,9.950832848E0
1.318944733E1,1.600022736E0,4.145479431E0,8.758736115E0,9.821432217E0
1.319947133E1,1.363813934E0,4.023632812E0,8.501570892E0,9.504015840E0
1.320949633E1,1.278191986E0,3.943100281E0,8.117769012E0,9.114822451E0
1.321952033E1,1.357077942E0,3.910767517E0,7.801476746E0,8.831693072E0
1.322954533E1,1.404529266E0,4.099075928E0,7.512128448E0,8.672208470E0
1.323957033E1,1.474882965E0,4.359384613E0,7.302564240E0,8.631741333E0
1.324959433E1,1.595981140E0,4.487368469E0,7.342231750E0,8.751685475E0
1.325961933E1,1.714983673E0,4.573439484E0,7.441625061E0,8.901421306E0
1.326964333E1,1.861977997E0,4.546196136E0,7.739206238E0,9.166797399E0
1.327966833E1,2.060315552E0,4.373904419E0,8.105943604E0,9.438339989E0
1.328969233E1,2.316133575E0,4.188889160E0,8.070916443E0,9.383547270E0
1.329971733E1,2.472857666E0,4.093537445E0,7.903265076E0,9.237622676E0
1.330974233E1,2.499352570E0,4.210144958E0,7.641609192E0,9.075586751E0
1.331976633E1,2.407593384E0,4.429738312E0,7.351961517E0,8.914618644E0
1.332979133E1,2.165097656E0,4.583468628E0,6.998696136E0,8.641619069E0
1.333981533E1,1.816472626E0,4.775070190E0,6.757846985E0,8.471680116E0
1.334984033E1,1.519639893E0,4.962031403E0,6.803352356E0,8.556673672E0
1.335986433E1,1.230740662E0,5.106331329E0,7.089407501E0,8.823210353E0
1.336988933E1,9.166937256E-1,5.243146820E0,7.494764557E0,9.192519335E0
1.337991333E1,7.077282715E-1,5.403014374E0,7.953111420E0,9.640820758E0
1.338993833E1,7.241940308E-1,5.507048035E0,8.383765869E0,1.005681685E1
1.339996333E1,9.602531433E-1,5.481750641E0,8.567583618E0,1.021641646E1
1.340998733E1,1.335672455E0,5.403762817E0,8.674161987E0,1.030658817E1
1.342001233E1,1.544488220E0,5.347330170E0,9.014105072E0,1.059403011E1
1.343003633E1,1.427431641E0,5.337450714E0,9.561666412E0,1.104316104E1
1.344006133E1,1.330882416E0,5.200485535E0,9.977651367E0,1.133004080E1
1.345008533E1,1.419049072E0,4.916526031E0,1.012689102E1,1.134635846E1
1.346011033E1,1.500479736E0,4.674629059E0,1.013662079E1,1.126297817E1
1.347013433E1,1.561852112E0,4.604125671E0,1.016191818E1,1.126507596E1
1.348015933E1,1.738484802E0,4.632865906E0,9.986483002E0,1.114520608E1
1.349018433E1,2.001936951E0,4.647984467E0,9.758507080E0,1.099272357E1
1.350020833E1,2.030826874E0,4.648283844E0,9.689051514E0,1.093656800E1
1.351023333E1,1.925895081E0,4.612059174E0,9.863887939E0,1.105786810E1
1.352025733E1,1.889820099E0,4.482279053E0,1.008976822E1,1.120114584E1
1.353028233E1,1.848356323E0,4.183949432E0,1.052820648E1,1.147889305E1
1.354030633E1,1.761836243E0,3.888314209E0,1.109657455E1,1.188936589E1
1.355033133E1,1.828747101E0,4.037254486E0,1.035950729E1,1.126779176E1
1.356035633E1,1.938618622E0,4.091441803E0,9.643097076E0,1.065304930E1
1.357038033E1,2.004331970E0,3.921994171E0,9.697733459E0,1.065107596E1
1.358040533E1,2.104623413E0,3.680995331E0,9.288933563E0,1.021094771E1
1.359042933E1,2.146536255E0,3.488345947E0,8.942853241E0,9.836198424E0
1.360045433E1,2.262844391E0,3.348237305E0,8.773854675E0,9.659797288E0
1.361047867E1,2.280657349E0,3.391347656E0,8.617130585E0,9.537168153E0
1.362050367E1,2.103276215E0,3.591481476E0,8.417595520E0,9.390336755E0
1.363052767E1,1.920356598E0,3.691024475E0,8.176746368E0,9.174454333E0
1.364055267E1,1.876048737E0,3.641627197E0,8.070766754E0,9.050871975E0
1.365057767E1,1.734293518E0,3.836521912E0,8.112679596E0,9.140144671E0
1.366060167E1,1.715133362E0,4.230053558E0,8.121810608E0,9.316589671E0
1.367062667E1,1.902393951E0,4.168381805E0,8.204887848E0,9.397589809E0
1.368065067E1,2.574047241E0,3.667972412E0,8.637338562E0,9.730537408E0
1.369067567E1,3.228336639E0,3.379073181E0,9.212442627E0,1.033002382E1
1.370069967E1,3.533102875E0,3.256328430E0,9.390123138E0,1.054802841E1
1.371072467E1,3.480711823E0,2.913541260E0,8.882378998E0,9.975005470E0
1.372074867E1,3.196452942E0,2.665207672E0,8.460406494E0,9.428633061E0
1.373077367E1,3.027604065E0,2.731220398E0,8.079149323E0,9.049784805E0
1.374079867E1,2.760559387E0,2.761607208E0,7.798183594E0,8.721171359E0
1.375082267E1,2.461631012E0,2.839894409E0,7.227420502E0,8.146179141E0
1.376084767E1,2.320474548E0,2.871029663E0,6.511459351E0,7.485086261E0
1.377087167E1,2.225721588E0,2.877017212E0,5.979315948E0,6.998805887E0
1.378089667E1,2.221979370E0,2.967878265E0,5.503156128E0,6.635527190E0
1.379092067E1,2.468965759E0,2.986289978E0,5.202581177E0,6.486953881E0
1.380094567E1,2.815944214E0,2.911894684E0,5.045557709E0,6.470419234E0
1.381097067E1,3.138373718E0,2.826123047E0,5.078040161E0,6.604759871E0
1.382099467E1,3.412304077E0,2.798580322E0,5.193899231E0,6.815604167E0
1.383101967E1,3.338208160E0,2.875969391E0,5.212610321E0,6.825404019E0
1.384104367E1,2.994822235E0,3.040626984E0,5.800737305E0,7.201591904E0
1.385106867E1,2.918780365E0,3.253184967E0,6.067482605E0,7.477756108E0
1.386109267E1,3.136427765E0,3.292702789E0,5.610033875E0,7.221603067E0
1.387111767E1,3.394491119E0,3.129242706E0,5.173391876E0,6.933881552E0
1.388114167E1,3.784280548E0,3.102149048E0,4.805157623E0,6.858108177E0
1.389116667E1,4.435276794E0,3.064427490E0,4.382586365E0,6.947622567E0
1.390119167E1,5.146597595E0,3.031645660E0,4.087699585E0,7.237929961E0
1.391121567E1,5.579796753E0,2.818339233E0,4.057462463E0,7.452527724E0
1.392124067E1,5.769751740E0,2.473905487E0,4.196822662E0,7.551394835E0
1.393126467E1,6.150559845E0,2.384391632E0,4.583169250E0,8.032443603E0
1.394128967E1,6.906188507E0,2.313289490E0,5.649701385E0,9.217693513E0
1.395131367E1,7.685767365E0,2.085163879E0,6.530769196E0,1.029902300E1
1.396133867E1,7.959697723E0,1.956581268E0,6.907835083E0,1.071929026E1
1.397136367E1,7.949069824E0,2.058668976E0,6.941065979E0,1.075194057E1
1.398138767E1,7.805668030E0,2.038011932E0,7.193441162E0,1.080867900E1
1.399141267E1,7.633376312E0,1.764680328E0,7.602690125E0,1.091711627E1
1.400143667E1,8.084089050E0,1.386267242E0,7.994126129E0,1.145339623E1
1.401146167E1,9.048982544E0,1.034049683E0,8.543334045E0,1.248766994E1
1.402148567E1,9.723330231E0,8.773255920E-1,8.626111908E0,1.302776487E1
1.403151067E1,1.001821701E1,1.005758514E0,7.611222382E0,1.262168485E1
1.404153467E1,1.011416748E1,1.136436768E0,6.743177490E0,1.220894406E1
1.405155967E1,1.013856674E1,1.138532410E0,5.784271545E0,1.172794052E1
1.406158467E1,1.056637711E1,9.283694458E-1,5.179080048E0,1.180394278E1
1.407160867E1,1.141915375E1,6.249504089E-1,5.942791901E0,1.288815002E1
1.408163367E1,1.278865585E1,6.236032104E-1,7.775730286E0,1.498000604E1
1.409165767E1,1.383468063E1,7.644602966E-1,9.707762604E0,1.691813945E1
1.410168267E1,1.405397461E1,8.190966797E-1,1.133068771E1,1.807123697E1
1.411170667E1,1.389859772E1,1.188528442E-1,1.176957504E1,1.821285374E1
1.412173167E1,1.346764389E1,-9.205856323E-1,1.045590683E1,1.707486157E1
1.413175667E1,1.280661850E1,-1.521436157E0,9.088949432E0,1.577761855E1
1.414178067E1,1.209724365E1,-1.713636475E0,7.991282043E0,1.459933021E1
1.415180567E1,1.180834442E1,-1.879042511E0,7.434140625E0,1.407956837E1
1.416182967E1,1.159698395E1,-1.761536865E0,7.611671448E0,1.398322534E1
1.417185467E1,1.134939880E1,-1.523082733E0,8.110134888E0,1.403221016E1
1.418187867E1,1.103520218E1,-1.609602814E0,8.892557831E0,1.426338295E1
1.419190367E1,1.044033920E1,-1.683399353E0,9.516610107E0,1.422674889E1
1.420192767E1,9.657018127E0,-1.165476379E0,9.486672363E0,1.358724721E1
1.421195267E1,8.756341095E0,-3.875440979E-1,8.658893738E0,1.232071997E1
1.422197767E1,7.561525726E0,5.090913391E-1,7.401508484E0,1.059330794E1
1.423200167E1,6.023623810E0,1.620979156E0,5.976471863E0,8.638856010E0
1.424202667E1,4.415817261E0,2.928959198E0,4.761298828E0,7.123777832E0
1.425205067E1,2.678679657E0,3.575015717E0,4.241729279E0,6.160221534E0
1.426207567E1,1.587748260E0,4.883594513E0,3.888912964E0,6.441590172E0
1.427209967E1,1.272653503E0,6.467450867E0,4.085304565E0,7.754823083E0
1.428212467E1,4.791535950E-1,5.717660065E0,4.145329742E0,7.078487371E0
1.429214967E1,1.152603149E-1,4.481380920E0,3.030897217E0,5.411321265E0
1.430217367E1,3.040177917E-1,4.474794617E0,1.618883514E0,4.768332781E0
1.431219867E1,7.863148499E-1,5.316943359E0,1.288819885E0,5.527136187E0
1.432222267E1,1.071771240E0,6.681655426E0,1.846560059E0,7.014484790E0
1.433224767E1,1.062640228E0,8.451125793E0,2.190095673E0,8.794728562E0
1.434227167E1,-7.694000244E-2,8.712182922E0,3.823049927E0,9.514397605E0
1.435229667E1,2.112107849E-1,8.127049713E0,4.063749390E0,9.088872655E0
1.436232067E1,8.204438782E-1,7.529642029E0,4.015998688E0,8.573032293E0
1.437234567E1,1.619631958E-1,7.250771942E0,4.021088104E0,8.292712185E0
1.438237067E1,2.186952209E-1,6.613996124E0,3.827390900E0,7.644716700E0
1.439239467E1,5.463638306E-2,6.069578247E0,4.176165619E0,7.367708226E0
1.440241967E1,-5.628295898E-2,5.794001312E0,5.763913879E0,8.172901699E0
1.441244367E1,4.799020386E-1,6.533762970E0,8.125253448E0,1.043743781E1
1.442246867E1,7.487429810E-1,7.658524017E0,1.120973923E1,1.359675916E1
1.443249267E1,6.171665955E-1,8.433462524E0,1.364861755E1,1.605580723E1
1.444251767E1,9.822573853E-1,8.863518219E0,1.516271896E1,1.759075982E1
1.445254167E1,3.128344574E0,9.213340759E0,1.836171661E1,2.078039520E1
1.446256667E1,6.435267792E0,9.921069031E0,2.156011551E1,2.459021885E1
1.447259167E1,1.136736145E1,9.966275024E0,2.456915817E1,2.884765289E1
1.448261567E1,1.710522949E1,9.586814117E0,2.791994019E1,3.411772180E1
1.449264067E1,2.263607803E1,7.301666107E0,3.212394791E1,3.997066907E1
1.450266467E1,2.726819550E1,2.546953583E0,3.659425186E1,4.570755657E1
1.451268967E1,3.044369202E1,-3.207978973E0,4.061848343E1,5.086227196E1
1.452271367E1,3.106564865E1,-7.004384308E0,4.016432785E1,5.125728394E1
1.453273867E1,2.758688278E1,-8.798703003E0,3.442660950E1,4.498493879E1
1.454276367E1,2.175246552E1,-7.749684448E0,2.832918915E1,3.654819179E1
1.455278767E1,1.636082748E1,-5.472769318E0,2.343242203E1,2.909821785E1
1.456281267E1,1.285317169E1,-3.968996429E0,1.876393021E1,2.308770305E1
1.457283667E1,1.094823303E1,-2.721939697E0,1.395293472E1,1.794316443E1
1.458286167E1,1.076037369E1,-1.853445740E0,1.040875488E1,1.508519411E1
1.459288567E1,1.167661835E1,-1.087638245E0,7.147486725E0,1.373364261E1
1.460291067E1,1.126811783E1,-6.837780762E-1,4.556824036E0,1.217385219E1
1.461293433E1,9.572893066E0,-5.804928589E-1,4.257596283E0,1.049306341E1
1.462295933E1,7.760312347E0,-4.516108704E-1,5.170098724E0,9.335754974E0
1.463298433E1,6.468648376E0,-8.310717773E-1,6.458768921E0,9.178768332E0
1.464300833E1,5.364843750E0,-1.173709259E0,6.236481171E0,8.309803805E0
1.465303333E1,3.794309692E0,-7.542814636E-1,4.077071686E0,5.620341635E0
1.466305733E1,2.600392456E0,1.101708984E-1,1.997146912E0,3.280666752E0
1.467308233E1,1.888622589E0,3.165916443E-1,-2.080673218E-1,1.926244420E0
1.468310633E1,1.539099426E0,-5.104385376E-2,-1.747615814E0,2.329290354E0
1.469313133E1,1.265019379E0,-2.290237427E-1,-2.898871765E0,3.171148595E0
1.470315633E1,9.883946228E-1,-4.203259277E-1,-4.171076202E0,4.307142266E0
1.471318033E1,1.480421448E-1,-6.860234070E-1,-5.432203674E0,5.477351673E0
1.472320533E1,-6.855743408E-2,-5.957611084E-1,-5.954617310E0,5.984738818E0
1.473322933E1,-4.894821167E-2,-3.670367432E-1,-5.814059601E0,5.825839076E0
1.474325433E1,-8.996292114E-2,-5.026547241E-1,-4.675078125E0,4.702883219E0
1.475327833E1,-2.115101624E-1,-2.698887634E-1,-3.479813690E0,3.496666958E0
1.476330333E1,-1.182241516E0,3.661386108E-1,-2.145039368E0,2.476478624E0
1.477332733E1,-1.730251923E0,4.396357727E-1,-3.914360046E-1,1.827641506E0
1.478335233E1,-1.481319580E0,5.972579956E-1,7.960446167E-1,1.784576096E0
1.479337733E1,-1.075962524E0,7.496411133E-1,1.656006317E0,2.112348000E0
1.480340133E1,-1.048719177E0,5.072950745E-1,2.342628479E0,2.616308162E0
1.481342633E1,-1.067280579E0,3.040177917E-1,2.537972260E0,2.769985170E0
1.482345033E1,-1.081800385E0,2.362088013E-1,2.602787476E0,2.828531300E0
1.483347533E1,-1.006357269E0,1.294807434E-1,2.184108124E0,2.408287465E0
1.484349933E1,-7.878117371E-1,-3.682342529E-2,1.799258423E0,1.964518814E0
1.485352433E1,-6.512956238E-1,-9.101074219E-2,1.612446899E0,1.741394254E0
1.486354833E1,-3.722758484E-1,1.556762695E-2,1.331930237E0,1.383065369E0
1.487357333E1,-1.889071655E-1,1.678010559E-1,1.075513458E0,1.104795144E0
1.488359833E1,-2.580633545E-1,3.079096985E-1,9.342073059E-1,1.016930857E0
1.489362233E1,-3.330574036E-1,4.270619202E-1,8.517288208E-1,1.009332008E0
1.490364733E1,-4.713697815E-1,5.614823914E-1,8.032296753E-1,1.087487866E0
1.491367133E1,-4.490661621E-1,6.357279968E-1,6.774911499E-1,1.031893775E0
1.492369633E1,-3.427871704E-1,5.734574890E-1,6.553372192E-1,9.358543727E-1
1.493372033E1,-3.432362366E-1,5.099894714E-1,5.959107971E-1,8.561600628E-1
1.494374533E1,-1.375639343E-1,5.761518860E-1,3.403921509E-1,6.831849297E-1
1.495377033E1,-1.035845947E-1,7.679031372E-1,7.813751221E-2,7.787878191E-1
1.496379433E1,-6.956034851E-1,1.234333191E0,4.191284180E-3,1.416848687E0
1.497381933E1,-1.412462769E0,1.909279633E0,-1.922003174E-1,2.382717094E0
1.498384333E1,-1.993704071E0,2.472109222E0,-4.379891968E-1,3.205934258E0
1.499386833E1,-2.614463196E0,2.680475922E0,-9.698332214E-1,3.867938139E0
1.500389233E1,-3.304378510E0,2.625839539E0,-1.306333466E0,4.418196209E0
1.501391733E1,-3.859873352E0,2.359094238E0,-9.960287476E-1,4.632064463E0
1.502394133E1,-3.988156586E0,2.143093414E0,-5.854325867E-1,4.565191524E0
1.503396633E1,-3.483106842E0,1.872755585E0,1.463955688E-1,3.957357504E0
1.504399133E1,-2.682721252E0,1.683998108E0,1.344204712E0,3.440890765E0
1.505401533E1,-1.738335114E0,1.842518463E0,2.837649078E0,3.803805403E0
1.506404033E1,-6.348298645E-1,2.345921631E0,3.918102264E0,4.610627138E0
1.507406433E1,7.200027466E-2,2.811902618E0,4.920118561E0,5.667410963E0
1.508408933E1,5.773493958E-1,3.195105743E0,6.006708984E0,6.828073364E0
1.509411333E1,1.171613617E0,3.955973511E0,6.314918060E0,7.543248305E0
1.510413833E1,2.823129272E0,4.783003693E0,6.703210602E0,8.705183260E0
1.511416233E1,4.725223846E0,5.971083069E0,7.844587097E0,1.093248005E1
1.512418733E1,7.568710785E0,7.224127350E0,9.758058014E0,1.430709947E1
1.513421233E1,1.177750854E1,8.241411896E0,1.425485687E1,2.024429604E1
1.514423633E1,1.548425034E1,9.689350891E0,2.241663437E1,2.891627614E1
1.515426133E1,1.732781662E1,1.122201370E1,3.050716003E1,3.683576569E1
1.516428533E1,1.917258041E1,9.564809875E0,3.587589569E1,4.178699941E1
1.517431033E1,2.072590027E1,6.631958771E0,3.746783524E1,4.332879523E1
1.518433433E1,2.194271988E1,5.994135132E0,3.739927780E1,4.377349188E1
1.519435933E1,2.313079926E1,7.000492401E0,3.611524796E1,4.345517119E1
1.520438433E1,2.350232666E1,7.960446167E0,3.393503174E1,4.203943911E1
1.521440833E1,2.292258224E1,7.823331299E0,3.023801971E1,3.874257510E1
1.522443333E1,2.029105453E1,7.361840973E0,2.546773956E1,3.338456762E1
1.523445733E1,1.647039963E1,7.456743622E0,2.108395569E1,2.777427365E1
1.524448233E1,1.276829819E1,7.633076935E0,1.709070969E1,2.265801535E1
1.525450633E1,1.017853363E1,7.575147400E0,1.432206711E1,1.913392305E1
1.526453133E1,8.616382141E0,7.258256378E0,1.276754974E1,1.702746761E1
1.527455533E1,7.424410858E0,6.438411255E0,1.169398224E1,1.527495456E1
1.528458033E1,6.417454834E0,5.319787445E0,1.036714142E1,1.330268718E1
1.529460533E1,5.328170013E0,4.447551270E0,8.746311951E0,1.116548614E1
1.530462933E1,4.547842712E0,3.670666809E0,7.062164154E0,9.166833188E0
1.531465433E1,4.082759857E0,2.937790833E0,5.586083679E0,7.516905873E0
1.532467833E1,4.023932190E0,2.294279022E0,4.460574188E0,6.430588510E0
1.533470333E1,4.044738922E0,1.821412354E0,3.437302094E0,5.611818029E0
1.534472733E1,3.892505493E0,1.674717407E0,2.717898102E0,5.034207733E0
1.535475233E1,3.666325836E0,1.492995300E0,2.188449097E0,4.523305158E0
1.536477633E1,3.476670227E0,1.195563812E0,1.564546509E0,3.995549333E0
1.537480133E1,3.314108276E0,9.794132996E-1,1.074615326E0,3.619027795E0
1.538482633E1,2.984942780E0,7.929011536E-1,9.231303406E-1,3.223467894E0
1.539485033E1,2.685265961E0,5.990542603E-1,9.512718201E-1,2.911088690E0
1.540487533E1,2.520608368E0,3.659889221E-1,9.770182800E-1,2.727999112E0
1.541489933E1,2.590962067E0,8.681945801E-2,1.046473846E0,2.795662634E0
1.542492433E1,3.076402588E0,-1.745370483E-1,1.249451752E0,3.325033194E0
1.543494833E1,3.684438171E0,7.484436035E-3,1.572480011E0,4.005974793E0
1.544497333E1,4.041595459E0,4.505630493E-1,1.873054962E0,4.477257621E0
1.545499833E1,4.192631378E0,1.093925171E0,1.723366241E0,4.663134284E0
1.546502233E1,4.097129974E0,1.875899048E0,1.552870789E0,4.766222713E0
1.547504733E1,4.174219666E0,2.423011322E0,1.493743744E0,5.052362225E0
1.548507133E1,4.308490448E0,2.935246124E0,1.691482544E0,5.480864252E0
1.549509633E1,4.196672974E0,3.763473816E0,2.543959808E0,6.184458806E0
1.550512033E1,4.373006287E0,4.943769379E0,3.969894562E0,7.702214129E0
1.551514533E1,4.903353424E0,6.171815643E0,5.420378265E0,9.566330732E0
1.552516933E1,5.641468506E0,7.358547821E0,6.654262390E0,1.141286997E1
1.553519433E1,6.701564026E0,8.283923492E0,8.270002441E0,1.348804245E1
1.554521933E1,7.880662079E0,9.090296631E0,1.043914169E1,1.592840252E1
1.555524333E1,8.560099182E0,9.857002258E0,1.251786896E1,1.808681384E1
1.556526833E1,8.712931366E0,1.012793884E1,1.372780289E1,1.915575345E1
1.557529233E1,8.620124359E0,9.716444550E0,1.373274261E1,1.890248815E1
1.558531733E1,8.346643066E0,8.961115265E0,1.315015411E1,1.796926795E1
1.559534133E1,8.014932861E0,8.163723450E0,1.260917908E1,1.702577242E1
1.560536633E1,7.879015503E0,7.427254944E0,1.209110641E1,1.623076879E1
1.561539196E1,7.637866974E0,6.856940918E0,1.159129578E1,1.548266090E1
1.562541596E1,7.493267670E0,6.187233582E0,1.110974716E1,1.475999328E1
1.563544096E1,7.093748474E0,5.495522003E0,1.041638901E1,1.374857045E1
1.564546496E1,6.493796082E0,4.806804199E0,9.356742554E0,1.236217559E1
1.565548996E1,5.721252594E0,4.441863098E0,8.081694031E0,1.085249545E1
1.566551396E1,4.926106110E0,4.237837372E0,6.753206635E0,9.371850769E0
1.567553896E1,4.322261810E0,3.978576508E0,5.565875702E0,8.092588616E0
1.568556296E1,3.816014557E0,3.686982880E0,4.655019836E0,7.058683980E0
1.569558796E1,3.453917542E0,3.546275482E0,3.999981995E0,6.364390948E0
1.570561296E1,3.379821625E0,3.385060730E0,3.412603455E0,5.876026948E0
1.571563696E1,3.718417511E0,2.990032196E0,2.825524292E0,5.545314134E0
1.572566196E1,4.015699310E0,2.998115387E0,2.288291473E0,5.509157349E0
1.573568596E1,4.112547913E0,3.421584778E0,1.666484528E0,5.603343949E0
1.574571096E1,4.249213715E0,3.645369415E0,1.150357819E0,5.715580327E0
1.575573496E1,4.131558380E0,3.846401367E0,9.722282410E-1,5.727984452E0
1.576575996E1,3.670517120E0,4.094884644E0,1.099463654E0,5.607993982E0
1.577578396E1,3.117866364E0,4.279151459E0,1.237776031E0,5.437307916E0
1.578580896E1,2.803520050E0,4.364623718E0,1.445094910E0,5.384975782E0
1.579583396E1,2.890489197E0,4.352648621E0,1.637295227E0,5.475510339E0
1.580585796E1,3.265609131E0,4.348756714E0,1.885329437E0,5.755897414E0
1.581588296E1,3.715423737E0,4.212989044E0,2.209555206E0,6.036206130E0
1.582590696E1,4.231400757E0,4.227359161E0,2.513423309E0,6.487882133E0
1.583593196E1,4.452041931E0,4.660408630E0,2.784808960E0,7.021057392E0
1.584595596E1,4.375101929E0,5.024900665E0,3.243455200E0,7.410205477E0
1.585598096E1,4.438719635E0,5.337899780E0,3.878434753E0,7.952211152E0
1.586600496E1,4.640649719E0,5.791157227E0,4.364324341E0,8.609323945E0
1.587602996E1,4.987029419E0,5.985303497E0,4.770130463E0,9.135013137E0
1.588605496E1,5.546565857E0,5.992488556E0,4.866679688E0,9.505728961E0
1.589607896E1,6.151008911E0,5.886958008E0,4.731959839E0,9.740771485E0
1.590610396E1,6.602021027E0,5.654641113E0,4.656516724E0,9.861277592E0
1.591612796E1,7.063511353E0,5.537285156E0,4.823719025E0,1.018935644E1
1.592615296E1,7.330256653E0,5.700745239E0,5.205574951E0,1.064561738E1
1.593617696E1,7.296576691E0,5.823939056E0,5.644312592E0,1.090947121E1
1.594620196E1,6.994355164E0,6.014043732E0,5.908662872E0,1.095454349E1
1.595622696E1,6.804250488E0,6.167025604E0,5.996530151E0,1.096760700E1
1.596625096E1,6.571783905E0,6.194568329E0,5.955365753E0,1.081792040E1
1.597627596E1,6.351292419E0,6.232589264E0,5.851032715E0,1.064982010E1
1.598629996E1,6.119125214E0,6.216273193E0,5.989345093E0,1.058102077E1
1.599632496E1,6.017486572E0,5.834866333E0,6.256988525E0,1.045971869E1
1.600634896E1,5.758824463E0,5.513334961E0,6.551875305E0,1.031930190E1
1.601637396E1,5.504054260E0,5.428910522E0,6.952442322E0,1.039731393E1
1.602639796E1,5.254972229E0,5.359454956E0,7.110962677E0,1.033945263E1
1.603642296E1,4.990322571E0,5.066963196E0,6.998995514E0,9.978144797E0
1.604644796E1,4.480183411E0,4.881349182E0,6.613696747E0,9.361655724E0
1.605647196E1,4.040847015E0,4.774172058E0,6.100414124E0,8.737059913E0
1.606649696E1,3.866309967E0,4.594844971E0,5.595813446E0,8.208171611E0
1.607652096E1,3.759432220E0,4.376299438E0,5.179229736E0,7.753047663E0
1.608654596E1,3.540886688E0,4.127367096E0,5.174589386E0,7.506624607E0
1.609656996E1,3.521127777E0,4.005221100E0,5.710175629E0,7.813209494E0
1.610659496E1,3.410507812E0,4.072880402E0,6.590345306E0,8.464784082E0
1.611661996E1,3.003504181E0,4.148323517E0,7.362140350E0,8.968318455E0
1.612664396E1,2.675536194E0,4.274211731E0,7.922574921E0,9.391196581E0
1.613666896E1,2.662363586E0,4.445904694E0,8.104446716E0,9.619579252E0
1.614669296E1,2.772534485E0,4.489314423E0,8.225395203E0,9.772308719E0
1.615671796E1,2.768642578E0,4.526886292E0,8.303383026E0,9.854148918E0
1.616674196E1,2.936892700E0,4.893174591E0,8.048014069E0,9.866054265E0
1.617676696E1,3.088078308E0,5.237009583E0,7.858208771E0,9.935489021E0
1.618679096E1,3.025358734E0,5.365292816E0,7.833360443E0,9.964973573E0
1.619681596E1,2.905907135E0,5.345833282E0,8.033943329E0,1.007801941E1
1.620684096E1,2.757266235E0,5.128934326E0,8.448880463E0,1.026119221E1
1.621686496E1,2.706821136E0,4.679269409E0,9.054221649E0,1.054520614E1
1.622688996E1,2.874472504E0,4.252506866E0,9.510472870E0,1.080719672E1
1.623691396E1,3.186274109E0,3.897594910E0,9.939181366E0,1.114140543E1
1.624693896E1,3.721710663E0,3.574716339E0,1.014560211E1,1.138257306E1
1.625696296E1,4.106410675E0,3.402574310E0,9.906998291E0,1.125116597E1
1.626698796E1,3.982618103E0,3.674409027E0,9.537716217E0,1.096952867E1
1.627701196E1,3.431763611E0,4.188140717E0,9.483079834E0,1.091999667E1
1.628703696E1,3.077899475E0,4.370611267E0,9.586065674E0,1.097580809E1
1.629706196E1,3.024460602E0,4.215982819E0,9.526938629E0,1.084824560E1
1.630708596E1,2.919528809E0,3.955823822E0,9.667945404E0,1.084626013E1
1.631711096E1,2.868335266E0,3.649411011E0,1.007315277E1,1.109116561E1
1.632713496E1,3.055595856E0,3.302582245E0,1.047192352E1,1.139758298E1
1.633715996E1,3.243305511E0,2.991379395E0,1.068223618E1,1.155757548E1
1.634718396E1,3.430566101E0,2.734663239E0,1.073926758E1,1.160082044E1
1.635720896E1,3.755690002E0,2.574795685E0,1.050021469E1,1.144505521E1
1.636723396E1,3.937262421E0,2.340682526E0,1.007973907E1,1.107167421E1
1.637725796E1,4.027674408E0,2.133513336E0,9.567803650E0,1.059796712E1
1.638728296E1,3.874393158E0,2.213297424E0,9.047635345E0,1.008807777E1
1.639730696E1,3.316802673E0,2.613115997E0,8.709488525E0,9.679088054E0
1.640733196E1,2.599344635E0,3.097957764E0,8.505462799E0,9.417899567E0
1.641735596E1,2.085163879E0,3.601360931E0,8.388705597E0,9.364191933E0
1.642738096E1,1.601669312E0,4.077969818E0,9.424401855E0,1.039300403E1
1.643740496E1,1.405577087E0,4.260590057E0,1.146181503E1,1.230859368E1
1.644742996E1,1.724563751E0,3.996389465E0,1.324116486E1,1.393820991E1
1.645745496E1,2.209106140E0,3.408412170E0,1.427281952E1,1.483950136E1
1.646747896E1,2.967429199E0,2.678829346E0,1.486379059E1,1.539201200E1
1.647750396E1,3.496728516E0,2.230661316E0,1.505718842E1,1.561799869E1
1.648752796E1,3.700903931E0,1.962269440E0,1.477173203E1,1.535419351E1
1.649755296E1,3.801345062E0,1.727856903E0,1.387195313E1,1.448678009E1
1.650757696E1,3.681145020E0,1.634451141E0,1.280631912E1,1.342475581E1
1.651760196E1,3.407963104E0,1.721719666E0,1.196701447E1,1.256136801E1
1.652762596E1,3.035088501E0,1.835932159E0,1.132320328E1,1.186580556E1
1.653765096E1,2.590513000E0,1.675914917E0,1.070768326E1,1.114333564E1
1.654767596E1,2.456840973E0,1.462009735E0,1.064481400E1,1.102205085E1
1.655769996E1,2.857557678E0,1.301543427E0,1.054063065E1,1.099838832E1
1.656772496E1,3.648662567E0,1.331630859E0,1.003468277E1,1.076015044E1
1.657774896E1,4.267775116E0,1.649270325E0,1.028586044E1,1.125757177E1
1.658777396E1,4.411925354E0,1.948947144E0,1.031400192E1,1.138604918E1
1.659779796E1,4.421804810E0,2.074386292E0,1.063104263E1,1.169933775E1
1.660782296E1,4.277953949E0,2.016307068E0,1.062116318E1,1.162649953E1
1.661784754E1,3.808380432E0,1.957778778E0,1.007914032E1,1.095106063E1
1.662787154E1,3.261567535E0,2.171983337E0,9.879455566E0,1.062821606E1
1.663789654E1,2.974763947E0,2.618654480E0,9.799821167E0,1.057085932E1
1.664792054E1,3.289559326E0,2.984942780E0,9.621242523E0,1.059714073E1
1.665794554E1,3.722010040E0,3.166365509E0,9.853858795E0,1.099898916E1
1.666796954E1,3.951482849E0,3.111878815E0,1.007420059E1,1.125999663E1
1.667799454E1,3.927981720E0,2.720742188E0,1.051593201E1,1.155059758E1
1.668801854E1,3.605552216E0,2.152972870E0,1.107756409E1,1.184684452E1
1.669804354E1,3.283422089E0,1.711391144E0,1.126781845E1,1.186058400E1
1.670806854E1,2.978057098E0,1.536105652E0,1.128563141E1,1.177259194E1
1.671809254E1,2.747985535E0,1.427880707E0,1.109777206E1,1.152175389E1
1.672811754E1,2.948418732E0,1.142274628E0,1.070798264E1,1.116507306E1
1.673814154E1,3.642225952E0,7.532336426E-1,9.927355957E0,1.060120593E1
1.674816654E1,4.383783875E0,5.819897461E-1,8.839568024E0,9.884039456E0
1.675819054E1,4.666396179E0,4.459226990E-1,8.293802948E0,9.526870824E0
1.676821554E1,4.544549561E0,2.600093079E-1,8.380173340E0,9.536657735E0
1.677823954E1,3.966451721E0,2.293231201E-1,8.812474365E0,9.666697098E0
1.678826454E1,3.200644226E0,4.513114929E-1,8.860524445E0,9.431685902E0
1.679828954E1,2.922522583E0,7.530839539E-1,8.301736450E0,8.833295069E0
1.680831354E1,3.009641418E0,7.014413452E-1,8.101602631E0,8.670981871E0
1.681833854E1,2.995271301E0,4.912783813E-1,8.132737885E0,8.680692951E0
1.682836254E1,2.892285461E0,5.066963196E-1,7.977211304E0,8.500468019E0
1.683838754E1,2.868335266E0,7.155120850E-1,7.874375153E0,8.411009974E0
1.684841154E1,3.039130096E0,7.915539551E-1,8.016579437E0,8.609786018E0
1.685843654E1,3.526366882E0,6.905140686E-1,8.539591827E0,9.264809855E0
1.686846054E1,4.080065460E0,5.971083069E-1,9.147926788E0,1.003434288E1
1.687848554E1,4.318369904E0,5.357359314E-1,9.191486206E0,1.016950099E1
1.688851054E1,4.087849274E0,6.418652344E-1,9.154213715E0,1.004600077E1
1.689853454E1,3.533701630E0,1.093925171E0,8.988657990E0,9.720066458E0
1.690855954E1,2.924169159E0,1.605710907E0,8.587641907E0,9.212853321E0
1.691858354E1,2.365381165E0,2.044747925E0,8.135731659E0,8.715856341E0
1.692860854E1,2.014061737E0,2.425106964E0,7.623796234E0,8.249839846E0
1.693863254E1,1.855242004E0,2.775977325E0,7.409292297E0,8.126843505E0
