"Time (s)","Acceleration x (m/s^2)","Acceleration y (m/s^2)","Acceleration z (m/s^2)","Absolute acceleration (m/s^2)"
5.520625004E-3,-2.406994629E0,3.766168213E0,8.687484283E0,9.769853086E0
1.554462500E-2,-2.503843231E0,3.796405334E0,8.420589294E0,9.570174944E0
2.556862500E-2,-2.763403473E0,3.641477509E0,8.238567810E0,9.421823431E0
3.559262500E-2,-2.970422974E0,3.987258453E0,8.562194824E0,9.901152601E0
4.561662500E-2,-2.832110596E0,4.070485382E0,8.735833740E0,1.004512284E1
5.564062500E-2,-2.384092255E0,3.663481750E0,9.018745422E0,1.002211372E1
6.566462500E-2,-1.838027802E0,3.346590729E0,9.304201813E0,1.005714607E1
7.568962500E-2,-1.302890625E0,3.184328156E0,9.494456177E0,1.009862208E1
8.571362501E-2,-1.000369720E0,3.100951538E0,9.690249023E0,1.022338330E1
9.573762500E-2,-7.705975342E-1,3.156336365E0,9.966574402E0,1.048278995E1
1.057616250E-1,-5.948629761E-1,3.010689240E0,9.943672028E0,1.040647515E1
1.157856250E-1,-5.128335571E-1,2.853366394E0,1.018721558E1,1.059169766E1
1.258096250E-1,-4.448748779E-1,2.832859039E0,1.040845551E1,1.079624703E1
1.358336250E-1,-2.923420715E-1,2.764600983E0,1.066397415E1,1.102038235E1
1.458576250E-1,-3.385958862E-1,2.481090546E0,1.130449219E1,1.157851463E1
1.558826250E-1,1.191522217E-1,2.370320892E0,1.037058426E1,1.063868583E1
1.659066250E-1,4.954696655E-1,2.274969177E0,9.944420471E0,1.021334781E1
1.759306250E-1,5.530998230E-1,2.205962677E0,1.064107178E1,1.088138775E1
1.859546250E-1,1.019679565E0,2.084864502E0,1.129386429E1,1.152986457E1
1.959786250E-1,1.508712616E0,1.842518463E0,1.128203888E1,1.153063265E1
2.060026250E-1,1.942360840E0,1.606010284E0,1.125793900E1,1.153660371E1
2.160266250E-1,2.176473999E0,1.576970673E0,1.135882919E1,1.167248372E1
2.260506250E-1,2.156864777E0,1.807940369E0,1.166194885E1,1.199673977E1
2.360756250E-1,2.148781586E0,1.301094360E0,1.240440491E1,1.265619887E1
2.460996250E-1,1.796114960E0,8.768765259E-1,1.210502747E1,1.226892951E1
2.561236250E-1,1.480122070E0,8.143066406E-1,1.147813110E1,1.160178220E1
2.661476250E-1,1.229692841E0,9.274713135E-1,1.100376755E1,1.111104170E1
2.761716250E-1,1.057101746E0,6.801855469E-1,1.117276611E1,1.124325661E1
2.861956250E-1,9.002279663E-1,-6.069877625E-1,1.148875900E1,1.153994922E1
2.962196250E-1,3.697311401E-1,-9.595046997E-1,1.099358871E1,1.104157340E1
3.062446250E-1,-1.526824951E-1,9.011260986E-2,9.718540192E0,9.720157184E0
3.162686250E-1,-7.297325134E-1,1.854942627E0,8.624615021E0,8.851966219E0
3.262926250E-1,-1.668580170E0,2.670895844E0,8.776249695E0,9.324183776E0
3.363166250E-1,-2.543660431E0,2.864742737E0,9.069190521E0,9.845160032E0
3.463406250E-1,-2.774929504E0,1.874701538E0,9.385183411E0,9.964758264E0
3.563646250E-1,-4.026925964E0,-4.842430115E-1,1.181942139E1,1.249597319E1
3.663886250E-1,-5.055886230E0,-6.988966370E-1,1.660212570E1,1.736896715E1
3.764126250E-1,-3.982169037E0,1.221909027E0,1.419303543E1,1.479165260E1
3.864376250E-1,-2.456242218E0,2.007774811E0,1.025277924E1,1.073237008E1
3.964616250E-1,-1.733694763E0,1.846709747E0,8.609496460E0,8.974378180E0
4.064856250E-1,-1.886227570E0,1.679956512E0,5.428461456E0,5.987345164E0
4.165096250E-1,-1.311722260E0,2.069895630E0,-1.746867371E0,3.009423336E0
4.265336250E-1,5.989045715E-1,4.578977966E-1,-3.692521362E0,3.768696205E0
4.365576250E-1,3.208278351E0,9.470805359E-1,-2.992726593E0,4.488476799E0
4.465816250E-1,4.787943420E0,2.766996002E0,6.713539124E-1,5.570582119E0
4.566056250E-1,5.092410278E0,5.092110901E0,5.203628998E0,8.884817984E0
4.666306250E-1,4.523293762E0,6.158044281E0,8.471034393E0,1.140789724E1
4.766546250E-1,3.342698822E0,5.696404266E0,9.439969482E0,1.152109721E1
4.866786250E-1,2.296823730E0,4.806504822E0,9.931547241E0,1.127002744E1
4.967026250E-1,1.967209167E0,3.794010315E0,1.022104523E1,1.107854646E1
5.067266250E-1,2.365530853E0,2.870580597E0,1.077504318E1,1.139901420E1
5.167470417E-1,2.411934357E0,2.341730347E0,1.319281540E1,1.361438601E1
5.267710417E-1,2.445165253E0,2.104024658E0,1.348949844E1,1.386983494E1
5.367950417E-1,2.818638611E0,1.942360840E0,1.052790710E1,1.107042534E1
5.468200417E-1,2.690355377E0,1.842518463E0,9.591155090E0,1.013030811E1
5.568440417E-1,1.939816132E0,1.965562592E0,1.053464310E1,1.089059356E1
5.668680417E-1,1.403631134E0,2.296823730E0,1.082399139E1,1.115367067E1
5.768920417E-1,1.409019928E0,2.673141174E0,1.020038818E1,1.063855911E1
5.869160417E-1,1.673669586E0,2.828069000E0,9.668544159E0,1.021175256E1
5.969400417E-1,1.941313019E0,2.836301880E0,9.258097687E0,9.875508968E0
6.069640417E-1,2.131118317E0,2.803819427E0,9.040150909E0,9.701927495E0
6.169880417E-1,2.265688477E0,2.757415924E0,8.923842773E0,9.611017464E0
6.270130417E-1,2.415826263E0,2.755919037E0,8.862021332E0,9.589928486E0
6.370370417E-1,2.476599884E0,2.751278687E0,8.930429077E0,9.667245983E0
6.470610417E-1,2.436034241E0,2.703228607E0,9.104666748E0,9.804930613E0
6.570850417E-1,2.320175171E0,2.608924713E0,9.291627960E0,9.925928225E0
6.671090417E-1,2.266586609E0,2.468516693E0,9.341324615E0,9.924280079E0
6.771330417E-1,2.304308167E0,2.398911438E0,9.274264069E0,9.852745111E0
6.871570417E-1,2.290836182E0,2.379601593E0,9.189390564E0,9.765005535E0
6.971810417E-1,2.175725555E0,2.409389648E0,9.147627411E0,9.706597108E0
7.072060417E-1,2.029928741E0,2.503693542E0,9.084608459E0,9.639460717E0
7.172300417E-1,1.910177765E0,2.553839264E0,9.060508575E0,9.605398988E0
7.272540417E-1,1.908830566E0,2.492466888E0,8.970845032E0,9.504319329E0
7.372780417E-1,1.879790955E0,2.405048676E0,8.868457947E0,9.379094813E0
7.473020417E-1,1.831441498E0,2.382894745E0,8.881780243E0,9.376480449E0
7.573260417E-1,1.779499512E0,2.325414276E0,8.801547089E0,9.275850431E0
7.673500417E-1,1.692530365E0,2.338137817E0,8.684340820E0,9.151465619E0
7.773740417E-1,1.672322388E0,2.315684509E0,8.719367981E0,9.175316610E0
7.873990417E-1,1.682201843E0,2.241738281E0,8.754844208E0,9.192523629E0
7.974230417E-1,1.632954254E0,2.216440887E0,9.118438110E0,9.524970518E0
8.074470417E-1,1.700763245E0,2.190245361E0,9.528136139E0,9.923464548E0
8.174710417E-1,1.859582977E0,2.204316101E0,9.623487854E0,1.004632156E1
8.274950417E-1,2.046843567E0,2.201022949E0,9.928852844E0,1.037382231E1
8.375190417E-1,2.208657074E0,1.959575043E0,1.005533981E1,1.047988355E1
8.475430417E-1,2.259551239E0,1.820963287E0,9.907447357E0,1.032371020E1
8.575670417E-1,2.434387665E0,1.629062347E0,9.886041870E0,1.031086375E1
8.675920417E-1,2.409090271E0,1.665287018E0,1.001926483E1,1.043851352E1
8.776160417E-1,2.383044434E0,2.019151154E0,1.009321106E1,1.056545227E1
8.876400417E-1,2.584226074E0,2.248025208E0,1.009889923E1,1.066393958E1
8.976640417E-1,2.631976776E0,1.476080475E0,9.816436615E0,1.026978788E1
9.076880417E-1,2.472109222E0,7.467970276E-1,9.515412598E0,9.859620008E0
9.177120417E-1,2.370470581E0,7.792794800E-1,9.546098785E0,9.866833803E0
9.277360417E-1,1.988315277E0,8.337661743E-1,9.378746796E0,9.623380650E0
9.377610417E-1,1.794468384E0,8.443940735E-1,9.058113556E0,9.272677031E0
9.477850417E-1,1.821112976E0,1.094224548E0,8.862769775E0,9.113861307E0
9.578090417E-1,1.662592621E0,1.246158600E0,8.671766968E0,8.917211886E0
9.678330417E-1,1.545236664E0,1.464853821E0,8.522976379E0,8.784912033E0
9.778570417E-1,1.605710907E0,1.673070831E0,8.372988281E0,8.688176234E0
9.878810417E-1,1.647174683E0,1.652563477E0,8.152646484E0,8.479964338E0
9.979050417E-1,1.591939545E0,1.505718842E0,7.880063324E0,8.179049990E0
1.007929042E0,1.779948578E0,8.907975769E-1,6.592590637E0,6.886507720E0
1.017954042E0,1.807491302E0,1.442400513E0,7.949369202E0,8.278889705E0
1.027978042E0,1.844763794E0,1.983674927E0,7.866291962E0,8.319655576E0
1.038002042E0,2.936892700E0,1.023272095E0,6.587052155E0,7.284344898E0
1.048026042E0,3.338956604E0,-5.837860107E-3,7.242539063E0,7.975151243E0
1.058050042E0,3.634292450E0,2.829116821E-2,6.119424591E0,7.117319673E0
1.068074042E0,3.776945801E0,3.635939026E-1,5.985602875E0,7.086957167E0
1.078098042E0,3.829336853E0,4.031117249E-1,5.457052002E0,6.678752604E0
1.088122042E0,3.683689728E0,4.676275635E-1,4.631818085E0,5.936495963E0
1.098147042E0,3.631148987E0,5.246589661E-1,4.115092621E0,5.513120466E0
1.108171042E0,3.751498718E0,6.448590088E-1,3.715723114E0,5.319415761E0
1.118195042E0,3.939208374E0,6.860234070E-1,3.351081390E0,5.217062125E0
1.128219042E0,4.032763824E0,6.165678406E-1,3.002755737E0,5.065558408E0
1.138243042E0,4.519252167E0,4.326004028E-1,2.757565613E0,5.311774785E0
1.148267042E0,5.131628723E0,2.017803955E-1,2.750380554E0,5.825712134E0
1.158291042E0,5.391188965E0,-1.023870850E-1,2.822380829E0,6.086151092E0
1.168315042E0,5.449567566E0,-5.111869812E-1,2.815345459E0,6.155101042E0
1.178340042E0,5.538482666E0,-9.092092896E-1,3.043022003E0,6.384468238E0
1.188364042E0,5.839356995E0,-1.279539185E0,3.758085022E0,7.061056130E0
1.198388042E0,6.306535492E0,-1.719174957E0,4.233496399E0,7.787839508E0
1.208412042E0,6.734794922E0,-2.054328003E0,4.221221924E0,8.209533526E0
1.218436042E0,7.013814697E0,-2.222428436E0,3.952830048E0,8.352104534E0
1.228460042E0,7.280709686E0,-2.275118866E0,3.686384125E0,8.471973047E0
1.238484042E0,7.659422150E0,-2.255958710E0,3.573219452E0,8.747799416E0
1.248509042E0,8.132588196E0,-2.290985870E0,3.472628632E0,9.134919629E0
1.258533042E0,8.692573700E0,-2.395618286E0,3.310515747E0,9.605172513E0
1.268557042E0,9.240434418E0,-2.586621094E0,3.247945862E0,1.013041901E1
1.278581042E0,9.722581787E0,-2.977458344E0,3.386108551E0,1.071725645E1
1.288605042E0,1.004935226E1,-3.475472717E0,3.749852142E0,1.127518437E1
1.298629042E0,1.026849655E1,-3.804039459E0,4.173321533E0,1.171876061E1
1.308653042E0,1.060125458E1,-3.911366272E0,4.391268311E0,1.212306158E1
1.318677042E0,1.089494385E1,-3.771407318E0,4.314777374E0,1.231018352E1
1.328702042E0,1.108789261E1,-3.789519653E0,3.990551605E0,1.237846209E1
1.338726042E0,1.131811386E1,-4.022435303E0,3.718567200E0,1.257407767E1
1.348750042E0,1.163275955E1,-4.105213165E0,3.626658325E0,1.285793609E1
1.358774042E0,1.195758408E1,-4.138294373E0,3.651207275E0,1.316968533E1
1.368798042E0,1.228839615E1,-4.459975433E0,3.719315643E0,1.359151830E1
1.378822042E0,1.266845581E1,-4.969964905E0,3.702849884E0,1.410324151E1
1.388846042E0,1.306977127E1,-5.411396942E0,3.672163696E0,1.461461338E1
1.398870042E0,1.341645035E1,-5.672753448E0,3.723955994E0,1.503492999E1
1.408895042E0,1.357212662E1,-5.717210999E0,3.761378174E0,1.519990422E1
1.418919042E0,1.355670868E1,-5.638325043E0,3.636986847E0,1.512622666E1
1.428943042E0,1.353186035E1,-5.620811462E0,3.426374817E0,1.504808328E1
1.438967042E0,1.349264191E1,-5.623505859E0,3.201841736E0,1.496419040E1
1.448991042E0,1.328756836E1,-5.471871185E0,3.094514923E0,1.469955339E1
1.459015042E0,1.299477722E1,-5.192701721E0,3.002156982E0,1.431227909E1
1.469039042E0,1.262040573E1,-4.954546967E0,2.826422424E0,1.384957906E1
1.479064042E0,1.228375580E1,-4.726870422E0,2.763253784E0,1.344877437E1
1.489088042E0,1.189097260E1,-4.486170959E0,2.690954132E0,1.299085037E1
1.499112042E0,1.141810593E1,-4.264481964E0,2.620301056E0,1.246695340E1
1.509136042E0,1.097966766E1,-4.042493591E0,2.657723236E0,1.199826443E1
1.519160042E0,1.066142944E1,-3.877686310E0,2.720293121E0,1.166629862E1
1.529184042E0,1.034349060E1,-3.727099457E0,2.693199463E0,1.131955792E1
1.539208042E0,9.999954987E0,-3.588188324E0,2.637664948E0,1.094675621E1
1.549233042E0,9.683812408E0,-3.466491394E0,2.635569305E0,1.061786282E1
1.559257042E0,9.424102478E0,-3.356170807E0,2.652035065E0,1.034943863E1
1.569281042E0,9.266480255E0,-3.282523956E0,2.550396423E0,1.015613813E1
1.579305042E0,9.214837646E0,-3.245550842E0,2.398911438E0,1.005990105E1
1.589329042E0,9.143436127E0,-3.188220062E0,2.270179138E0,9.945897882E0
1.599353042E0,9.088650055E0,-3.089575195E0,2.193837891E0,9.846926393E0
1.609377042E0,9.123677216E0,-3.090323639E0,2.047292633E0,9.847994377E0
1.619401042E0,9.163344727E0,-2.984942780E0,2.019001465E0,9.846478400E0
1.629426042E0,9.265282745E0,-2.897973633E0,2.121238861E0,9.936969852E0
1.639450042E0,9.395062866E0,-3.016527100E0,2.107467499E0,1.008999808E1
1.649474042E0,9.450896759E0,-3.071762238E0,2.103276215E0,1.015770366E1
1.659498042E0,9.539512482E0,-3.068918152E0,2.071841583E0,1.023294115E1
1.669522042E0,9.615704041E0,-3.125201111E0,1.979783020E0,1.030282422E1
1.679546042E0,9.543703766E0,-3.130889282E0,1.944755859E0,1.023068056E1
1.689570042E0,9.484127655E0,-3.087778931E0,1.974693604E0,1.016771710E1
1.699594042E0,9.460776215E0,-2.989583130E0,1.982477417E0,1.011800922E1
1.709619042E0,9.461075592E0,-2.959346008E0,1.917063446E0,1.009677238E1
1.719643042E0,9.510622559E0,-2.987786865E0,1.881587219E0,1.014490918E1
1.729667042E0,9.596394196E0,-3.043920135E0,1.757046204E0,1.021975747E1
1.739691042E0,9.743687897E0,-3.098556519E0,1.568737793E0,1.034415026E1
1.749715042E0,9.762698364E0,-3.030148773E0,1.431622925E0,1.032190027E1
1.759739042E0,9.765692139E0,-2.868484955E0,1.351838837E0,1.026763932E1
1.769763042E0,9.759554901E0,-2.635419617E0,1.243314514E0,1.018529231E1
1.779788042E0,9.771080933E0,-2.557431793E0,1.151705017E0,1.016567285E1
1.789812042E0,9.634415131E0,-2.520907745E0,1.010548553E0,1.000990205E1
1.799836042E0,9.429790649E0,-2.479294281E0,8.574169922E-1,9.787901497E0
1.809860042E0,9.278455353E0,-2.492766266E0,8.102650452E-1,9.641584249E0
1.819884042E0,9.134903870E0,-2.610271912E0,8.086184692E-1,9.534875562E0
1.829908042E0,9.062753906E0,-2.793640594E0,8.360115051E-1,9.520338827E0
1.839932042E0,9.251511383E0,-3.065175934E0,9.828561401E-1,9.795497566E0
1.849957042E0,9.622739410E0,-3.477418671E0,1.193019104E0,1.030110911E1
1.859981042E0,9.931696930E0,-3.790118408E0,1.210981750E0,1.069906904E1
1.870005042E0,1.018826340E1,-3.999083862E0,1.212478638E0,1.101197018E1
1.880029042E0,1.055125854E1,-4.260290680E0,1.222358093E0,1.144435638E1
1.890053042E0,1.080198715E1,-4.472698975E0,1.276545410E0,1.176084736E1
1.900077042E0,1.093685669E1,-4.599934387E0,1.345252533E0,1.194085152E1
1.910101042E0,1.103639969E1,-4.691693573E0,1.440753937E0,1.207848826E1
1.920125042E0,1.106708588E1,-4.729564819E0,1.559906158E0,1.213599936E1
1.930150042E0,1.117082016E1,-4.793481903E0,1.607956238E0,1.226173785E1
1.940174042E0,1.133083740E1,-4.905299377E0,1.607207794E0,1.245122304E1
1.950198042E0,1.141645935E1,-4.962031403E0,1.709145813E0,1.256497032E1
1.960222042E0,1.138801849E1,-4.895270233E0,1.787582703E0,1.252382081E1
1.970246042E0,1.131856293E1,-4.732259216E0,1.796564026E0,1.239886230E1
1.980270042E0,1.115929413E1,-4.481979675E0,1.749711456E0,1.215234452E1
1.990294042E0,1.087728058E1,-4.159101105E0,1.749561768E0,1.177600616E1
2.000319042E0,1.063328796E1,-3.894601135E0,1.666185150E0,1.144599947E1
2.010343042E0,1.040037231E1,-3.717519379E0,1.518592072E0,1.114871367E1
2.020367042E0,1.008887009E1,-3.596570892E0,1.365161133E0,1.079742037E1
2.030391042E0,9.728719025E0,-3.504662018E0,1.232686615E0,1.041393998E1
2.040415042E0,9.342821503E0,-3.470682678E0,1.098116455E0,1.002695426E1
2.050439042E0,9.101373596E0,-3.573069763E0,1.054856415E0,9.834355644E0
2.060463042E0,9.056017914E0,-3.869603119E0,1.041534119E0,9.903033983E0
2.070488042E0,9.165290680E0,-4.291575623E0,1.089883575E0,1.017880252E1
2.080512042E0,9.289083252E0,-4.692442017E0,1.166374512E0,1.047217787E1
2.090536042E0,9.413923645E0,-5.004093933E0,1.304537201E0,1.074079754E1
2.100560042E0,9.601782990E0,-5.309159546E0,1.470991058E0,1.107001474E1
2.110584042E0,9.845326538E0,-5.634433136E0,1.549577637E0,1.144895114E1
2.120608042E0,9.933193817E0,-5.841003571E0,1.592987366E0,1.163285308E1
2.130632042E0,9.768386536E0,-5.865702209E0,1.641336823E0,1.151181239E1
2.140657042E0,9.521100769E0,-5.784271545E0,1.723964996E0,1.127303031E1
2.150681042E0,9.182504883E0,-5.610033875E0,1.830243988E0,1.091515777E1
2.160705042E0,8.840017090E0,-5.370980988E0,1.907333679E0,1.051813960E1
2.170729042E0,8.566086731E0,-5.165458374E0,1.946252747E0,1.019056926E1
2.180753042E0,8.344697113E0,-4.967869263E0,1.957629089E0,9.906866637E0
2.190777042E0,8.109536133E0,-4.770280151E0,1.957778778E0,9.610049259E0
2.200801042E0,7.866741028E0,-4.624483337E0,1.994452515E0,9.340733449E0
2.210826042E0,7.667355652E0,-4.514761505E0,2.023192749E0,9.124950577E0
2.220850042E0,7.400011597E0,-4.373904419E0,1.992656250E0,8.823938487E0
2.230874042E0,7.149732056E0,-4.211791534E0,1.957030334E0,8.525715461E0
2.240898042E0,7.028783569E0,-4.112248535E0,1.914219360E0,8.365322602E0
2.250922042E0,6.994654541E0,-4.094884644E0,1.870659943E0,8.318211407E0
2.260946042E0,6.948700104E0,-4.137845306E0,1.881886597E0,8.303474819E0
2.270970042E0,6.846013641E0,-4.141138458E0,1.909429321E0,8.225743179E0
2.280994042E0,6.757098541E0,-4.129013672E0,1.962568817E0,8.158358350E0
2.291019042E0,6.697821808E0,-4.092339935E0,1.992207184E0,8.097959779E0
2.301043042E0,6.728507996E0,-4.113745422E0,2.011666718E0,8.138951052E0
2.311067042E0,6.816375275E0,-4.178410950E0,1.987566833E0,8.238477521E0
2.321091042E0,6.836283875E0,-4.196074219E0,1.943408661E0,8.253402528E0
2.331115042E0,6.874903564E0,-4.208648071E0,1.922601929E0,8.286942487E0
2.341139042E0,6.886728973E0,-4.187841339E0,1.900298309E0,8.281073886E0
2.351163042E0,6.946454773E0,-4.190386047E0,1.849254456E0,8.320595602E0
2.361188042E0,7.069798279E0,-4.222718811E0,1.696422272E0,8.407808893E0
2.371212042E0,7.101083221E0,-4.164489899E0,1.484163666E0,8.364873031E0
2.381236042E0,7.096293182E0,-4.041146393E0,1.315913544E0,8.271630405E0
2.391260042E0,7.124584351E0,-3.964655457E0,1.199755096E0,8.241213949E0
2.401284042E0,7.147486725E0,-3.954177246E0,1.063388672E0,8.237285939E0
2.411308042E0,7.151827698E0,-3.946094055E0,9.945318604E-1,8.228571646E0
2.421332042E0,7.244784393E0,-3.990401917E0,9.972262573E-1,8.330946439E0
2.431357042E0,7.386838989E0,-4.046086121E0,1.067130890E0,8.489697962E0
2.441381042E0,7.699089661E0,-4.121529236E0,1.092577972E0,8.800949464E0
2.451405042E0,8.035739594E0,-4.190685425E0,1.060694275E0,9.124693282E0
2.461429042E0,8.344397736E0,-4.301904144E0,1.033600616E0,9.444770144E0
2.471453042E0,8.600515137E0,-4.432881775E0,1.037043457E0,9.731123295E0
2.481477042E0,8.848100281E0,-4.521647186E0,1.068328400E0,9.993772932E0
2.491501042E0,9.081315308E0,-4.574038239E0,1.018631744E0,1.021908627E1
2.501526042E0,9.300459595E0,-4.638404388E0,8.779243469E-1,1.042996141E1
2.511549375E0,9.516161041E0,-4.712649994E0,8.292755127E-1,1.065148294E1
2.521573375E0,9.734407196E0,-4.784201202E0,7.957452393E-1,1.087568274E1
2.531597375E0,9.993218994E0,-4.907095642E0,7.366181946E-1,1.115735721E1
2.541621375E0,1.023721161E1,-5.000202026E0,6.381230164E-1,1.141094750E1
2.551645375E0,1.054467224E1,-5.224286041E0,5.170248413E-1,1.177924412E1
2.561669375E0,1.101394638E1,-5.652844849E0,5.228627014E-1,1.239092632E1
2.571694375E0,1.151016449E1,-6.178551636E0,5.658233643E-1,1.307587638E1
2.581718375E0,1.205098984E1,-6.598278809E0,6.300398254E-1,1.375356643E1
2.591742375E0,1.262115417E1,-6.851552124E0,7.225474548E-1,1.437912981E1
2.601766375E0,1.302261932E1,-6.938371582E0,7.197033691E-1,1.477320504E1
2.611790375E0,1.320344330E1,-6.905739441E0,6.688092041E-1,1.491534304E1
2.621814375E0,1.324849960E1,-6.844816132E0,7.051835632E-1,1.492888253E1
2.631838375E0,1.305225769E1,-6.555018768E0,8.490344238E-1,1.463046689E1
2.641863375E0,1.267878433E1,-6.015989685E0,1.059796143E0,1.407362327E1
2.651887375E0,1.216654953E1,-5.399421844E0,1.214873657E0,1.336617379E1
2.661911375E0,1.158770325E1,-4.827910309E0,1.219514008E0,1.261232726E1
2.671935375E0,1.102023331E1,-4.298311615E0,1.066681824E0,1.187681923E1
2.681959375E0,1.043360321E1,-3.770359497E0,9.361532593E-1,1.113337638E1
2.691983375E0,9.899962921E0,-3.260070648E0,8.869056702E-1,1.046058928E1
2.702007375E0,9.424850922E0,-2.836301880E0,8.818162537E-1,9.881802627E0
2.712032375E0,8.983867950E0,-2.514321442E0,8.951385498E-1,9.371924492E0
2.722056375E0,8.715775452E0,-2.365979919E0,9.683363342E-1,9.082966363E0
2.732080375E0,8.616831207E0,-2.424059143E0,1.013242950E0,9.008468464E0
2.742104375E0,8.686586151E0,-2.536026306E0,1.035247192E0,9.108235018E0
2.752128375E0,8.852590942E0,-2.627635803E0,9.746232605E-1,9.285619355E0
2.762152375E0,9.098978577E0,-2.700983276E0,9.021739197E-1,9.534182691E0
2.772176375E0,9.440568237E0,-2.791844330E0,8.761280823E-1,9.883639199E0
2.782201375E0,9.790989532E0,-2.921624451E0,8.256829834E-1,1.025090815E1
2.792225375E0,1.002495300E1,-3.024310913E0,8.649014282E-1,1.050686412E1
2.802249375E0,1.015488281E1,-3.105591888E0,9.702822876E-1,1.066338566E1
2.812273375E0,1.016940262E1,-3.157084808E0,1.090033264E0,1.070383607E1
2.822297375E0,1.010788055E1,-3.193159790E0,1.169967041E0,1.066463040E1
2.832321375E0,1.003752686E1,-3.206482086E0,1.237177277E0,1.060962206E1
2.842346375E0,9.901759186E0,-3.189567261E0,1.286873932E0,1.048209038E1
2.852370375E0,9.639205170E0,-3.124153290E0,1.366059265E0,1.022451603E1
2.862394375E0,9.330696716E0,-3.018023987E0,1.541195068E0,9.927016281E0
2.872418375E0,9.017248535E0,-2.875520325E0,1.753603363E0,9.625721429E0
2.882442375E0,8.652307434E0,-2.663411407E0,1.911974030E0,9.252666045E0
2.892466375E0,8.256231079E0,-2.465522919E0,2.019899597E0,8.850093179E0
2.902490375E0,7.843688965E0,-2.289938049E0,2.087259521E0,8.433500172E0
2.912515375E0,7.548353119E0,-2.168241119E0,2.064506836E0,8.120412110E0
2.922539375E0,7.333699493E0,-2.134860535E0,1.962119751E0,7.886107511E0
2.932563375E0,7.162904663E0,-2.122735748E0,1.856140137E0,7.697952096E0
2.942587375E0,7.086563416E0,-2.135459290E0,1.779349823E0,7.612204228E0
2.952611375E0,7.081473999E0,-2.203717346E0,1.720073090E0,7.613297287E0
2.962635375E0,7.095993805E0,-2.274370422E0,1.650018768E0,7.632067271E0
2.972659375E0,7.159910889E0,-2.343526611E0,1.573378143E0,7.696230226E0
2.982684375E0,7.294331360E0,-2.454895020E0,1.534908142E0,7.847911987E0
2.992708375E0,7.538024597E0,-2.603086853E0,1.485660553E0,8.112032006E0
3.002732375E0,7.879464569E0,-2.792892151E0,1.409169617E0,8.477733628E0
3.012756375E0,8.155640259E0,-2.963537292E0,1.337468719E0,8.779854434E0
3.022780375E0,8.285270691E0,-3.071612549E0,1.298100586E0,8.931157775E0
3.032804375E0,8.355025635E0,-3.141367493E0,1.306632843E0,9.021193517E0
3.042828375E0,8.478818207E0,-3.246299286E0,1.289268951E0,9.170116230E0
3.052853375E0,8.687334595E0,-3.417094116E0,1.321152649E0,9.428242619E0
3.062877375E0,8.920549622E0,-3.649111633E0,1.425186310E0,9.742862889E0
3.072901375E0,9.202862549E0,-3.938459930E0,1.559606781E0,1.013096832E1
3.082925375E0,9.574988708E0,-4.284839630E0,1.676214294E0,1.062308589E1
3.092949375E0,1.004770569E1,-4.651427307E0,1.770967255E0,1.121287165E1
3.102973375E0,1.064661026E1,-5.004542999E0,1.825154572E0,1.190491285E1
3.112998375E0,1.127874573E1,-5.334606628E0,1.798360291E0,1.260564290E1
3.123022375E0,1.182915115E1,-5.593867493E0,1.652713165E0,1.318907242E1
3.133046375E0,1.218151840E1,-5.705535278E0,1.419198761E0,1.352614685E1
3.143070375E0,1.226384720E1,-5.616769867E0,1.209484863E0,1.354300209E1
3.153094375E0,1.234542755E1,-5.495372314E0,1.064436493E0,1.355513642E1
3.163118375E0,1.258971954E1,-5.609584808E0,9.858499146E-1,1.381811782E1
3.173142375E0,1.300420761E1,-6.098019104E0,9.648934937E-1,1.439535592E1
3.183167375E0,1.348201401E1,-6.758296051E0,9.370513916E-1,1.511017315E1
3.193191375E0,1.386102585E1,-7.245532837E0,8.259823608E-1,1.566231243E1
3.203215375E0,1.394799500E1,-7.448510742E0,7.524851990E-1,1.583013299E1
3.213239375E0,1.388811951E1,-7.513775024E0,8.015830994E-1,1.581073098E1
3.223263375E0,1.375818970E1,-7.558232574E0,8.678952026E-1,1.572157452E1
3.233287375E0,1.340911560E1,-7.441026306E0,8.463400269E-1,1.535869607E1
3.243311375E0,1.287397842E1,-7.006330261E0,7.461982727E-1,1.467599387E1
3.253336375E0,1.209065735E1,-6.267766113E0,6.168672180E-1,1.363265977E1
3.263360375E0,1.126257935E1,-5.485941925E0,5.444178772E-1,1.253944349E1
3.273384375E0,1.050006500E1,-4.913232880E0,4.788542175E-1,1.160260849E1
3.283408375E0,9.829908600E0,-4.594096527E0,4.352947998E-1,1.085920382E1
3.293432375E0,9.361981659E0,-4.484973450E0,4.574487305E-1,1.039090693E1
3.303456375E0,9.133856049E0,-4.537813568E0,5.161267090E-1,1.021202551E1
3.313481375E0,9.066496124E0,-4.721032562E0,5.516029358E-1,1.023688264E1
3.323505375E0,9.061406708E0,-4.991370392E0,5.917195129E-1,1.036209447E1
3.333529375E0,9.132209473E0,-5.374124451E0,7.152127075E-1,1.062026331E1
3.343553375E0,9.361382904E0,-5.776338043E0,8.566685486E-1,1.103337900E1
3.353577375E0,9.621691589E0,-6.073021088E0,9.005273438E-1,1.141356577E1
3.363601375E0,9.760453033E0,-6.192622375E0,8.336164856E-1,1.158921618E1
3.373625375E0,9.741143188E0,-6.090983734E0,7.171586609E-1,1.151104991E1
3.383650375E0,9.612261200E0,-5.898034973E0,6.777905273E-1,1.129786626E1
3.393674375E0,9.463470612E0,-5.723497925E0,7.403604126E-1,1.108439615E1
3.403698375E0,9.303303680E0,-5.528752899E0,7.741900635E-1,1.084978978E1
3.413722375E0,9.028624878E0,-5.277126160E0,8.349636841E-1,1.049101006E1
3.423746375E0,8.738378448E0,-5.062322845E0,9.557624817E-1,1.014395645E1
3.433770375E0,8.408464508E0,-4.917424164E0,1.166075134E0,9.810355091E0
3.443795375E0,8.069868622E0,-4.827760620E0,1.401834869E0,9.507638675E0
3.453819375E0,7.708819427E0,-4.734504547E0,1.605261841E0,9.187942961E0
3.463843375E0,7.394772491E0,-4.636009369E0,1.730850677E0,8.897813616E0
3.473867375E0,7.092700653E0,-4.572541351E0,1.806742859E0,8.630113367E0
3.483891375E0,6.792425079E0,-4.541106720E0,1.838476868E0,8.374884232E0
3.493915375E0,6.502028961E0,-4.469405823E0,1.837279358E0,8.101084153E0
3.503940375E0,6.262077942E0,-4.371359711E0,1.835932159E0,7.854492521E0
3.513968250E0,6.022725677E0,-4.202959900E0,1.752405853E0,7.550431960E0
3.523992250E0,5.798641663E0,-4.068389740E0,1.612746277E0,7.264777406E0
3.534016250E0,5.658383331E0,-3.971092072E0,1.504671021E0,7.074666709E0
3.544040250E0,5.530399475E0,-3.877087555E0,1.392853546E0,6.896170478E0
3.554064250E0,5.416935425E0,-3.763174438E0,1.273851013E0,6.717690649E0
3.564088250E0,5.355862427E0,-3.673810272E0,1.164129181E0,6.598283186E0
3.574113250E0,5.322332153E0,-3.637735291E0,1.087937622E0,6.537885428E0
3.584137250E0,5.277275848E0,-3.616180115E0,9.964778137E-1,6.474516741E0
3.594161250E0,5.205275574E0,-3.593427429E0,9.398954773E-1,6.394608510E0
3.604185250E0,5.130880280E0,-3.568878479E0,8.849597168E-1,6.312367206E0
3.614209250E0,5.134173431E0,-3.566483459E0,7.879614258E-1,6.300827271E0
3.624233250E0,5.157524872E0,-3.604803772E0,6.177653503E-1,6.322681952E0
3.634257250E0,5.177283783E0,-3.662433929E0,4.074526978E-1,6.354817649E0
3.644282250E0,5.174589386E0,-3.741469574E0,2.071691895E-1,6.388887928E0
3.654306250E0,5.189408569E0,-3.809577942E0,4.625381470E-2,6.437777940E0
3.664330250E0,5.247188416E0,-3.893852692E0,-3.188369751E-2,6.534224638E0
3.674354250E0,5.383704529E0,-4.058061218E0,-2.110610962E-2,6.741852918E0
3.684378250E0,5.627547455E0,-4.299958191E0,-3.891906738E-3,7.082298070E0
3.694402250E0,5.956114197E0,-4.579576721E0,6.436614990E-3,7.513179134E0
3.704427250E0,6.343358917E0,-4.888384552E0,5.014572144E-2,8.008559201E0
3.714451250E0,6.847360840E0,-5.248834991E0,1.472937012E-1,8.628923147E0
3.724475250E0,7.425758057E0,-5.624403992E0,2.987786865E-1,9.320143329E0
3.734499250E0,7.980803833E0,-5.917793884E0,3.594026184E-1,9.941965828E0
3.744523250E0,8.662635956E0,-6.331683197E0,3.375480652E-1,1.073524161E1
3.754547250E0,9.528136139E0,-7.009024658E0,2.535726929E-1,1.183114973E1
3.764572250E0,1.033615585E1,-7.788902893E0,1.619631958E-1,1.294331326E1
3.774596250E0,1.109013794E1,-8.492439880E0,1.017883301E-1,1.396864544E1
3.784620250E0,1.192480225E1,-9.114097137E0,1.393601990E-1,1.500956683E1
3.794644250E0,1.289897644E1,-9.662855988E0,2.359094238E-1,1.611862377E1
3.804668250E0,1.367406464E1,-9.911938019E0,3.776646423E-1,1.689287393E1
3.814692250E0,1.409034897E1,-9.649833069E0,6.102809143E-1,1.708887519E1
3.824717250E0,1.406624908E1,-8.861871643E0,6.917115784E-1,1.663942899E1
3.834741250E0,1.369606888E1,-7.750582581E0,7.711962891E-1,1.575590609E1
3.844765250E0,1.335268295E1,-6.757248230E0,1.014889526E0,1.499948487E1
3.854789250E0,1.297711395E1,-5.991740112E0,1.124910736E0,1.433777738E1
3.864813250E0,1.286305115E1,-5.604046326E0,1.017733612E0,1.406766511E1
3.874837250E0,1.300645294E1,-5.637726288E0,7.855664063E-1,1.419749592E1
3.884862250E0,1.310764252E1,-5.773493958E0,5.460644531E-1,1.433323799E1
3.894886250E0,1.309896057E1,-5.813311157E0,4.221221924E-1,1.433720830E1
3.904910250E0,1.311303131E1,-5.746549988E0,3.674858093E-1,1.432164351E1
3.914934250E0,1.301902679E1,-5.538632355E0,2.880010986E-1,1.415112899E1
3.924958250E0,1.287457718E1,-5.156626740E0,1.392105103E-1,1.386956800E1
3.934982250E0,1.272339157E1,-4.714745636E0,9.430389404E-3,1.356884698E1
3.945006250E0,1.250798950E1,-4.375401306E0,-8.427474976E-2,1.325145427E1
3.955031250E0,1.224109451E1,-4.177812195E0,-1.264869690E-1,1.293501096E1
3.965055250E0,1.194695618E1,-4.052672424E0,-7.708969116E-2,1.261585742E1
3.975079250E0,1.153995255E1,-3.861669617E0,-9.654922485E-2,1.216931875E1
3.985103250E0,1.103475311E1,-3.624113617E0,-2.341131592E-1,1.161700412E1
3.995127250E0,1.048494644E1,-3.442990265E0,-4.040098572E-1,1.104316566E1
4.005151250E0,9.885742493E0,-3.307222595E0,-4.288581848E-1,1.043309855E1
4.015176250E0,9.250613251E0,-3.214565277E0,-2.974314880E-1,9.797741624E0
4.025200250E0,8.608598328E0,-3.113824768E0,-1.146615601E-1,9.155163413E0
4.035224250E0,8.014932861E0,-3.002755737E0,1.065783691E-1,8.559617383E0
4.045248250E0,7.485034790E0,-2.883603516E0,3.257226562E-1,8.027889529E0
4.055272250E0,7.043153687E0,-2.784958649E0,5.129832458E-1,7.591123786E0
4.065296250E0,6.697672119E0,-2.729573822E0,6.583309937E-1,7.262422789E0
4.075321250E0,6.450536041E0,-2.731070709E0,7.646099854E-1,7.046473648E0
4.085345250E0,6.265670471E0,-2.731370087E0,8.735833740E-1,6.890729781E0
4.095369250E0,6.113137665E0,-2.710263977E0,9.572593689E-1,6.755170496E0
4.105393250E0,6.040838013E0,-2.683320007E0,1.044827271E0,6.692054556E0
4.115417250E0,6.082900543E0,-2.712658997E0,1.114432526E0,6.752936969E0
4.125441250E0,6.222260742E0,-2.785707092E0,1.125210114E0,6.909615803E0
4.135466250E0,6.373446350E0,-2.782264252E0,1.165476379E0,7.051251515E0
4.145490250E0,6.617588654E0,-2.755020905E0,1.171763306E0,7.263308407E0
4.155514250E0,6.943910065E0,-2.818638611E0,1.117725677E0,7.577065480E0
4.165538250E0,7.230414276E0,-2.843936005E0,1.068627777E0,7.842756399E0
4.175562250E0,7.527396698E0,-2.827919312E0,1.038091278E0,8.107802550E0
4.185586250E0,7.851323090E0,-2.853965149E0,1.069226532E0,8.422092181E0
4.195611250E0,8.199648743E0,-2.930755463E0,1.075363770E0,8.773823244E0
4.205635250E0,8.557404785E0,-3.088976440E0,1.094823303E0,9.163492248E0
4.215659250E0,8.925639038E0,-3.264411621E0,1.123114471E0,9.569994858E0
4.225683250E0,9.352401581E0,-3.500770111E0,1.210682373E0,1.005925238E1
4.235707250E0,9.836943970E0,-3.848347321E0,1.341061249E0,1.064770816E1
4.245731250E0,1.031834290E1,-4.225862274E0,1.460512848E0,1.124540839E1
4.255756250E0,1.080378342E1,-4.575834503E0,1.551523590E0,1.183499991E1
4.265780250E0,1.136331985E1,-4.922812958E0,1.617536316E0,1.248901715E1
4.275804250E0,1.191956314E1,-5.172044678E0,1.666484528E0,1.309974054E1
4.285828250E0,1.239736954E1,-5.345683594E0,1.654659119E0,1.360180140E1
4.295852250E0,1.290526337E1,-5.605243835E0,1.641187134E0,1.416538302E1
4.305876250E0,1.344369370E1,-6.027815094E0,1.632056122E0,1.482332831E1
4.315901250E0,1.408675644E1,-6.623875580E0,1.599124603E0,1.564831090E1
4.325925250E0,1.472308319E1,-7.185507660E0,1.469045105E0,1.644867145E1
4.335949250E0,1.519565048E1,-7.517217865E0,1.255439301E0,1.699977899E1
4.345973250E0,1.539668243E1,-7.650889893E0,1.038690033E0,1.722419296E1
4.355997250E0,1.526166321E1,-7.673941956E0,9.327104187E-1,1.710782563E1
4.366021250E0,1.481768646E1,-7.489675140E0,8.825646973E-1,1.662642434E1
4.376046250E0,1.410935944E1,-7.019053802E0,8.161029053E-1,1.577996083E1
4.386070250E0,1.324326050E1,-6.402336273E0,6.770420837E-1,1.472522476E1
4.396094250E0,1.237476654E1,-5.881269836E0,4.948709106E-1,1.371018158E1
4.406118250E0,1.161988632E1,-5.560786285E0,3.299139404E-1,1.288615325E1
4.416142250E0,1.106454117E1,-5.469176788E0,2.731819153E-1,1.234546858E1
4.426166250E0,1.075199112E1,-5.616320801E0,2.897973633E-1,1.213393402E1
4.436191250E0,1.061816940E1,-5.918392639E0,3.197351074E-1,1.216039158E1
4.446215250E0,1.054826477E1,-6.325545959E0,3.911366272E-1,1.230574700E1
4.456239250E0,1.053554123E1,-6.760391693E0,4.772076416E-1,1.252710070E1
4.466263250E0,1.055904236E1,-7.141798553E0,5.707630920E-1,1.276026773E1
4.476287250E0,1.055769516E1,-7.419171753E0,6.776408386E-1,1.292161885E1
4.486311250E0,1.053554123E1,-7.613617401E0,7.692503357E-1,1.302138798E1
4.496336250E0,1.050455566E1,-7.777676239E0,8.219407654E-1,1.309631719E1
4.506360250E0,1.039947418E1,-7.777975616E0,8.325686646E-1,1.301303725E1
4.516380250E0,1.019589752E1,-7.580985260E0,7.939489746E-1,1.273020105E1
4.526404250E0,9.972561951E0,-7.347770233E0,7.689509583E-1,1.241100338E1
4.536428250E0,9.740245056E0,-7.073540497E0,8.017327881E-1,1.206441563E1
4.546452250E0,9.502539368E0,-6.777456207E0,8.170010376E-1,1.170041272E1
4.556477250E0,9.255253601E0,-6.485263824E0,8.011340332E-1,1.132961526E1
4.566501250E0,8.994046783E0,-6.220464478E0,8.259823608E-1,1.096673619E1
4.576525250E0,8.765921173E0,-5.989794159E0,8.861572266E-1,1.065383887E1
4.586549250E0,8.529412994E0,-5.784720612E0,9.271719360E-1,1.034763385E1
4.596573250E0,8.243657227E0,-5.587430878E0,9.298663330E-1,1.000209576E1
4.606597250E0,7.924071808E0,-5.407804413E0,9.071136475E-1,9.636291701E0
4.616622250E0,7.568411407E0,-5.222040710E0,8.741821289E-1,9.236598660E0
4.626646250E0,7.194938049E0,-5.063220978E0,8.887019348E-1,8.842688015E0
4.636670250E0,6.822063446E0,-4.932542725E0,9.075627136E-1,8.467242613E0
4.646694250E0,6.438411255E0,-4.758155365E0,9.431886292E-1,8.061190157E0
4.656718250E0,6.111940155E0,-4.626129913E0,9.809101868E-1,7.727811801E0
4.666742250E0,5.800886993E0,-4.525539093E0,1.046024780E0,7.431349933E0
4.676767250E0,5.516927490E0,-4.411775665E0,1.116378479E0,7.151681925E0
4.686791250E0,5.297932892E0,-4.309837646E0,1.181343384E0,6.930971480E0
4.696815250E0,5.130880280E0,-4.238885193E0,1.206640778E0,6.763879219E0
4.706839250E0,5.027295685E0,-4.179907837E0,1.187779999E0,6.645009613E0
4.716863250E0,4.913083191E0,-4.120182037E0,1.164877625E0,6.516995193E0
4.726887250E0,4.824617157E0,-4.060007172E0,1.117725677E0,6.403897222E0
4.736912250E0,4.726421356E0,-3.997287598E0,1.023571472E0,6.274158552E0
4.746936250E0,4.668342133E0,-3.934118958E0,9.148974609E-1,6.173147301E0
4.756960250E0,4.673281860E0,-3.900738373E0,7.842192078E-1,6.137615414E0
4.766984250E0,4.709805908E0,-3.919000397E0,5.941145325E-1,6.155794659E0
4.777008250E0,4.713997192E0,-3.971840515E0,4.197271729E-1,6.178467246E0
4.787032250E0,4.707859955E0,-4.034111023E0,2.984793091E-1,6.207019172E0
4.797057250E0,4.800966339E0,-4.087849274E0,1.654060364E-1,6.307705496E0
4.807081250E0,4.924010468E0,-4.187242584E0,8.637039185E-2,6.464235406E0
4.817105250E0,5.132975922E0,-4.366419983E0,3.532653809E-2,6.739014263E0
4.827129250E0,5.350922699E0,-4.569248199E0,1.496887207E-3,7.036363058E0
4.837153250E0,5.597909088E0,-4.800517273E0,3.367996216E-2,7.374461783E0
4.847178250E0,5.895789642E0,-4.997657318E0,1.483415222E-1,7.730389342E0
4.857202250E0,6.369853821E0,-5.249733124E0,2.658471680E-1,8.258656688E0
4.867226250E0,6.891968079E0,-5.728587341E0,3.357518005E-1,8.968203064E0
4.877250250E0,7.349416809E0,-6.456822968E0,4.552033997E-1,9.793451915E0
4.887274250E0,7.973618774E0,-7.293433228E0,4.149371338E-1,1.081410826E1
4.897298250E0,8.689729614E0,-8.119116211E0,3.360511780E-1,1.189724250E1
4.907323250E0,9.437424774E0,-8.914861450E0,4.016148376E-1,1.298849628E1
4.917347250E0,9.960886230E0,-9.510921936E0,7.212002563E-1,1.379119358E1
4.927371250E0,1.045366150E1,-9.814340973E0,1.097068634E0,1.438067756E1
4.937395250E0,1.086455704E1,-9.773775330E0,1.358125763E0,1.467684535E1
4.947419250E0,1.103086121E1,-9.260043640E0,1.616338806E0,1.449278642E1
4.957443250E0,1.087159241E1,-8.280330963E0,1.868564301E0,1.379300311E1
4.967468250E0,1.073462723E1,-7.313491516E0,1.890867920E0,1.312610991E1
4.977492250E0,1.084809128E1,-6.849755859E0,1.669777679E0,1.293786680E1
4.987516250E0,1.111693222E1,-6.807393951E0,1.368903351E0,1.310727625E1
4.997540250E0,1.144085861E1,-6.901248779E0,1.146465912E0,1.341025222E1
5.007564250E0,1.178155014E1,-6.941215668E0,1.013692017E0,1.371178217E1
5.017588250E0,1.199276093E1,-6.928941193E0,1.006357269E0,1.388701896E1
5.027613250E0,1.213750992E1,-6.850055237E0,1.088686066E0,1.397954367E1
5.037637250E0,1.225022552E1,-6.761589203E0,1.156045990E0,1.404006967E1
5.047661250E0,1.236368958E1,-6.642436981E0,1.163081360E0,1.408316538E1
5.057685250E0,1.248403931E1,-6.453529816E0,1.068328400E0,1.409399198E1
5.067709250E0,1.255184830E1,-6.267616425E0,8.669970703E-1,1.405644319E1
5.077734250E0,1.252475464E1,-6.145919495E0,6.084846497E-1,1.396467181E1
5.087758250E0,1.243733643E1,-6.108048248E0,3.478765869E-1,1.386061358E1
5.097782250E0,1.225681183E1,-6.102360077E0,1.820214844E-1,1.369311384E1
5.107806250E0,1.195399155E1,-6.078858948E0,1.573228455E-1,1.341175568E1
5.117830250E0,1.149878815E1,-5.903872833E0,2.348616028E-1,1.292799301E1
5.127854250E0,1.089359665E1,-5.675597534E0,3.920347595E-1,1.228969270E1
5.137879250E0,1.028241760E1,-5.424868927E0,6.153703308E-1,1.164199275E1
5.147903250E0,9.638606415E0,-5.129533081E0,7.667056274E-1,1.094544110E1
5.157927250E0,8.962462463E0,-4.844974823E0,7.872129822E-1,1.021857224E1
5.167951250E0,8.304131470E0,-4.542004852E0,8.180488586E-1,9.500400596E0
5.177975250E0,7.693850555E0,-4.220323792E0,8.367599487E-1,8.815136782E0
5.187999250E0,7.203619995E0,-3.979474640E0,8.039781189E-1,8.268901998E0
5.198024250E0,6.822811890E0,-3.786076813E0,7.276368713E-1,7.836746463E0
5.208048250E0,6.526128845E0,-3.624113617E0,7.143145752E-1,7.498986767E0
5.218072250E0,6.305188293E0,-3.493435364E0,7.068301392E-1,7.242865379E0
5.228096250E0,6.194568329E0,-3.456911316E0,6.683601379E-1,7.125280198E0
5.238120250E0,6.192772064E0,-3.504811707E0,6.439608765E-1,7.144845453E0
5.248145250E0,6.309080200E0,-3.627406769E0,6.988966370E-1,7.311021088E0
5.258169250E0,6.494245148E0,-3.778292999E0,8.343649292E-1,7.559555732E0
5.268193250E0,6.663094025E0,-3.831582184E0,9.659413147E-1,7.746669390E0
5.278217250E0,6.840924225E0,-3.854933624E0,9.859996033E-1,7.913971994E0
5.288241250E0,7.027286682E0,-3.933669891E0,9.437873840E-1,8.108467892E0
5.298265250E0,7.269483032E0,-4.028722229E0,9.544152832E-1,8.365817048E0
5.308290250E0,7.513775024E0,-4.108805695E0,1.003962250E0,8.622472937E0
5.318314250E0,7.715106354E0,-4.161047058E0,1.060544586E0,8.829605512E0
5.328338250E0,7.942483521E0,-4.229754181E0,1.093176727E0,9.064706298E0
5.338362250E0,8.221652985E0,-4.338278503E0,1.178499298E0,9.370437491E0
5.348386250E0,8.569679260E0,-4.504133606E0,1.273851013E0,9.764697567E0
5.358410250E0,9.062155151E0,-4.771627350E0,1.395547943E0,1.033627774E1
5.368435250E0,9.621691589E0,-5.055437164E0,1.541344757E0,1.097771095E1
5.378459250E0,1.011341904E1,-5.284011841E0,1.695075073E0,1.153582703E1
5.388483250E0,1.063942520E1,-5.467979279E0,1.837279358E0,1.210255186E1
5.398507250E0,1.118743561E1,-5.609435120E0,1.938019867E0,1.266413830E1
5.408531250E0,1.160267212E1,-5.604196014E0,1.973496094E0,1.303547851E1
5.418556250E0,1.185130508E1,-5.421426086E0,1.895208893E0,1.316955237E1
5.428580250E0,1.202419556E1,-5.188660126E0,1.767225037E0,1.321463420E1
5.438604250E0,1.230890350E1,-5.220693512E0,1.634900208E0,1.346987917E1
5.448628250E0,1.288236099E1,-5.691015472E0,1.453028412E0,1.415818397E1
5.458652250E0,1.359203522E1,-6.433471527E0,1.181792450E0,1.508408468E1
5.468676250E0,1.422042847E1,-6.987619171E0,8.954379272E-1,1.586975792E1
5.478701250E0,1.457818451E1,-7.124883728E0,6.396199036E-1,1.623873595E1
5.488725250E0,1.459090805E1,-7.118147736E0,4.372407532E-1,1.624049890E1
5.498749250E0,1.428030396E1,-7.216792603E0,2.496807861E-1,1.600223475E1
5.508773250E0,1.377585297E1,-7.160659332E0,9.310638428E-2,1.552603735E1
5.518798042E0,1.307066940E1,-6.753955078E0,-4.266128540E-2,1.471258400E1
5.528823042E0,1.222971817E1,-6.216422882E0,-1.995350647E-1,1.372041305E1
5.538847042E0,1.145612686E1,-5.961053925E0,-2.980302429E-1,1.291765569E1
5.548871042E0,1.085348007E1,-5.986800385E0,-2.585124207E-1,1.239784809E1
5.558895042E0,1.043794418E1,-6.041885834E0,-1.586700439E-1,1.206151895E1
5.568919042E0,1.015548157E1,-6.186485138E0,-8.861572266E-2,1.189177266E1
5.578943042E0,9.939929810E0,-6.448290710E0,-4.535568237E-2,1.184840558E1
5.588968042E0,9.762848053E0,-6.727310486E0,3.742218018E-2,1.185627719E1
5.598992042E0,9.613758087E0,-6.961423645E0,1.616638184E-1,1.187063178E1
5.609016042E0,9.517807617E0,-7.146438904E0,2.644999695E-1,1.190504981E1
5.619040042E0,9.421857147E0,-7.272776184E0,3.315605164E-1,1.190691387E1
5.629064042E0,9.343719635E0,-7.410938873E0,4.282594299E-1,1.193358780E1
5.639088042E0,9.353748779E0,-7.559879150E0,5.167254639E-1,1.203791486E1
5.649113042E0,9.395362244E0,-7.623047791E0,5.641767883E-1,1.211205948E1
5.659137042E0,9.384285278E0,-7.530989227E0,6.030958557E-1,1.204758621E1
5.669161042E0,9.338779907E0,-7.356003113E0,6.471043396E-1,1.190555904E1
5.679185042E0,9.277706909E0,-7.125632172E0,6.527925110E-1,1.171651046E1
5.689209042E0,9.313033447E0,-6.953490143E0,6.015989685E-1,1.163810717E1
5.699234042E0,9.298813019E0,-6.764133911E0,5.312452698E-1,1.151102309E1
5.709258042E0,9.138197021E0,-6.506669312E0,5.132826233E-1,1.122973060E1
5.719282042E0,8.944050751E0,-6.304888916E0,5.168751526E-1,1.095512793E1
5.729306042E0,8.710087280E0,-6.121520233E0,5.427713013E-1,1.065988889E1
5.739330042E0,8.450976105E0,-5.946085052E0,5.348377991E-1,1.034702740E1
5.749354042E0,8.202941895E0,-5.799689484E0,5.703140259E-1,1.006230152E1
5.759379042E0,7.960895233E0,-5.665119324E0,6.035449219E-1,9.789468644E0
5.769403042E0,7.689659271E0,-5.529950409E0,6.098318481E-1,9.491212047E0
5.779427042E0,7.422614594E0,-5.419180756E0,6.248007202E-1,9.211574426E0
5.789451042E0,7.167844391E0,-5.331014099E0,6.354286194E-1,8.955527571E0
5.799475042E0,6.916367340E0,-5.240751801E0,6.518943787E-1,8.702102211E0
5.809500042E0,6.670728149E0,-5.143454132E0,7.294331360E-1,8.454927980E0
5.819524042E0,6.442901917E0,-5.065765686E0,8.089178467E-1,8.235734040E0
5.829548042E0,6.255491638E0,-4.991819458E0,8.963360596E-1,8.053127061E0
5.839572042E0,6.074967041E0,-4.931494904E0,9.472302246E-1,7.881758156E0
5.849596042E0,5.933660889E0,-4.879702606E0,9.928852844E-1,7.746331406E0
5.859621042E0,5.810467072E0,-4.830904083E0,1.004111938E0,7.622821173E0
5.869645042E0,5.683081970E0,-4.805157623E0,9.500743103E-1,7.502639646E0
5.879669042E0,5.610932007E0,-4.825515289E0,8.538244629E-1,7.449642408E0
5.889693042E0,5.520370331E0,-4.796775055E0,7.361691284E-1,7.350203025E0
5.899717042E0,5.389093323E0,-4.754562836E0,6.099815369E-1,7.212508029E0
5.909741042E0,5.273084564E0,-4.766837311E0,4.478686523E-1,7.122411467E0
5.919766042E0,5.204676819E0,-4.765490112E0,2.736309814E-1,7.062112341E0
5.929790042E0,5.149142303E0,-4.727169800E0,1.297801208E-1,6.991183280E0
5.939814042E0,5.106780396E0,-4.716541901E0,2.185455322E-2,6.951650964E0
5.949838042E0,5.080435181E0,-4.716691589E0,-3.727249146E-2,6.932488039E0
5.959862042E0,5.092709656E0,-4.727020111E0,-7.559280396E-2,6.948821845E0
5.969887042E0,5.136119385E0,-4.758754120E0,-9.954299927E-2,7.002526110E0
5.979911042E0,5.238656158E0,-4.800367584E0,-9.475296021E-2,7.106055545E0
5.989935042E0,5.408702545E0,-4.901557159E0,-7.858657837E-2,7.299691888E0
5.999959042E0,5.682932281E0,-5.096451874E0,-5.224136353E-2,7.633627590E0
6.009983042E0,6.046226807E0,-5.420378265E0,-2.020797729E-2,8.120207356E0
6.020007042E0,6.497238922E0,-6.008505249E0,-8.966354370E-2,8.850101044E0
6.030032042E0,6.979685669E0,-6.703509979E0,-1.963916016E-1,9.679443566E0
6.040056042E0,7.575596466E0,-7.291636963E0,-2.320175171E-1,1.051719846E1
6.050080042E0,8.122409363E0,-7.815397797E0,-3.733236694E-1,1.127800280E1
6.060104042E0,8.546926575E0,-8.297395477E0,-4.492158508E-1,1.192050840E1
6.070128042E0,8.917406158E0,-8.585995331E0,-3.803590393E-1,1.238483433E1
6.080152042E0,9.121880951E0,-8.439749451E0,-3.457809448E-1,1.243212159E1
6.090177042E0,9.174421692E0,-7.864196320E0,-2.787203979E-1,1.208690540E1
6.100201042E0,9.233848114E0,-7.130571899E0,-1.263372803E-1,1.166726051E1
6.110225042E0,9.373657379E0,-6.577322388E0,-6.047424316E-2,1.145121302E1
6.120249042E0,9.665849762E0,-6.451284485E0,-2.612068176E-1,1.162393875E1
6.130273042E0,1.004920258E1,-6.566245422E0,-4.897814941E-1,1.201423894E1
6.140298042E0,1.045964905E1,-6.760990448E0,-6.560856628E-1,1.247179612E1
6.150322042E0,1.086335953E1,-6.959627380E0,-7.107220459E-1,1.292107268E1
6.160346042E0,1.132559830E1,-7.176825714E0,-6.640191650E-1,1.342448977E1
6.170370042E0,1.172945847E1,-7.286996613E0,-5.358856201E-1,1.381910594E1
6.180394042E0,1.210712311E1,-7.217241669E0,-2.986289978E-1,1.409823345E1
6.190419042E0,1.248194366E1,-6.921905823E0,-1.061293030E-1,1.427315527E1
6.200443042E0,1.262070511E1,-6.466403046E0,-2.767744446E-1,1.418355279E1
6.210467042E0,1.263133301E1,-6.041586456E0,-6.891668701E-1,1.401878352E1
6.220491042E0,1.265288818E1,-5.714217224E0,-1.107546844E0,1.392747349E1
6.230515042E0,1.255394394E1,-5.383255463E0,-1.338965607E0,1.372493267E1
6.240540042E0,1.237641312E1,-5.129533081E0,-1.390907593E0,1.346931087E1
6.250564042E0,1.208556793E1,-5.037324829E0,-1.408421173E0,1.316887406E1
6.260588042E0,1.164009430E1,-5.024750977E0,-1.453477478E0,1.276136805E1
6.270612042E0,1.106005051E1,-4.945266266E0,-1.616638184E0,1.222267952E1
6.280636042E0,1.040800644E1,-4.775369568E0,-1.704355774E0,1.157737367E1
6.290660042E0,9.762398987E0,-4.571194153E0,-1.573078766E0,1.089379763E1
6.300685042E0,9.152118073E0,-4.445156250E0,-1.220262451E0,1.024742503E1
6.310709042E0,8.577762451E0,-4.399052124E0,-7.458988953E-1,9.668817581E0
6.320733042E0,8.072263641E0,-4.384682007E0,-3.049159241E-1,9.191292092E0
6.330757042E0,7.658374329E0,-4.344266052E0,3.622467041E-2,8.804808750E0
6.340781042E0,7.383845215E0,-4.303999786E0,2.439926147E-1,8.550153023E0
6.350806042E0,7.242988129E0,-4.317920837E0,3.396437073E-1,8.439234280E0
6.360830042E0,7.133715363E0,-4.350403290E0,3.876937866E-1,8.364580691E0
6.370854042E0,7.092101898E0,-4.347110138E0,3.791615295E-1,8.327006626E0
6.380878042E0,7.118896179E0,-4.338577881E0,2.766247559E-1,8.341370517E0
6.390902042E0,7.172484741E0,-4.331392822E0,1.827699280E-1,8.380865468E0
6.400926042E0,7.190597076E0,-4.285139008E0,7.514373779E-2,8.370946733E0
6.410951042E0,7.157515869E0,-4.195924530E0,-5.987548828E-3,8.296737427E0
6.420975042E0,7.134164429E0,-4.084256744E0,-7.753875732E-2,8.220916464E0
6.430999042E0,7.182513885E0,-4.019591217E0,-1.490899658E-1,8.232122878E0
6.441023042E0,7.228019257E0,-3.927832031E0,-2.151026917E-1,8.229118787E0
6.451047042E0,7.312743073E0,-3.848197632E0,-2.023791504E-1,8.265941784E0
6.461072042E0,7.504793701E0,-3.860621796E0,-1.425036621E-1,8.440772266E0
6.471096042E0,7.732470245E0,-3.917054443E0,-9.849517822E-2,8.668570407E0
6.481120042E0,7.956254883E0,-3.991599426E0,-6.586303711E-3,8.901398829E0
6.491144042E0,8.216563568E0,-4.075425110E0,1.589694214E-1,9.173128036E0
6.501168042E0,8.513396301E0,-4.193379822E0,3.165916443E-1,9.495397895E0
6.511193042E0,8.785231018E0,-4.369713135E0,4.787045288E-1,9.823636544E0
6.521220750E0,9.095236359E0,-4.552932129E0,6.653663635E-1,1.019290085E1
6.531244750E0,9.458830261E0,-4.718787231E0,7.967930603E-1,1.060053310E1
6.541268750E0,9.847272491E0,-4.871170349E0,8.451425171E-1,1.101868150E1
6.551292750E0,1.025023453E1,-4.994364166E0,8.448431396E-1,1.143349208E1
6.561316750E0,1.063538361E1,-5.082381134E0,7.987390137E-1,1.181439658E1
6.571341750E0,1.102202957E1,-5.160518646E0,6.741979980E-1,1.218895531E1
6.581365750E0,1.145448029E1,-5.358257446E0,5.358856201E-1,1.265714086E1
6.591389750E0,1.200488571E1,-5.756429443E0,4.047583008E-1,1.331981945E1
6.601413750E0,1.265737885E1,-6.348598022E0,2.631527710E-1,1.416273933E1
6.611437750E0,1.334115692E1,-6.897207184E0,2.025288391E-1,1.501995183E1
6.621462750E0,1.383288437E1,-7.255861359E0,7.065307617E-2,1.562053795E1
6.631486750E0,1.414079407E1,-7.492668915E0,-5.433700562E-2,1.600328394E1
6.641510750E0,1.423030792E1,-7.677235107E0,-1.625619507E-1,1.616997306E1
6.651534750E0,1.404828644E1,-7.691754913E0,-2.198927307E-1,1.601767144E1
6.661558750E0,1.355206833E1,-7.371870117E0,-2.059716797E-1,1.542872157E1
6.671583750E0,1.274210266E1,-6.762337646E0,-2.276765442E-1,1.442713510E1
6.681607750E0,1.188019501E1,-6.200406189E0,-3.356021118E-1,1.340509974E1
6.691631750E0,1.114387619E1,-5.968089294E0,-4.921765137E-1,1.265094084E1
6.701655750E0,1.059736267E1,-6.030958557E0,-4.602928162E-1,1.220198452E1
6.711679750E0,1.027957352E1,-6.228248291E0,-2.914439392E-1,1.202271384E1
6.721704750E0,1.016191818E1,-6.489754486E0,-1.386117554E-1,1.205822158E1
6.731728750E0,1.012599289E1,-6.871460724E0,-6.301895142E-2,1.223751102E1
6.741752750E0,1.000878662E1,-7.225474548E0,6.810836792E-2,1.234455065E1
6.751776750E0,9.868378601E0,-7.487280121E0,2.404000854E-1,1.238959451E1
6.761800750E0,9.751471710E0,-7.668852539E0,3.655398560E-1,1.241112884E1
6.771824750E0,9.625134430E0,-7.733368378E0,4.623884583E-1,1.235564658E1
6.781849750E0,9.481732635E0,-7.677085419E0,5.480104065E-1,1.221233842E1
6.791873750E0,9.265881500E0,-7.533234558E0,5.769003296E-1,1.195570980E1
6.801897750E0,9.055568848E0,-7.296726379E0,6.042933655E-1,1.164520131E1
6.811921750E0,8.864715729E0,-6.994205475E0,6.474037170E-1,1.131022664E1
6.821945750E0,8.679401093E0,-6.708449707E0,6.724017334E-1,1.099033325E1
6.831970750E0,8.527916107E0,-6.484964447E0,6.861730957E-1,1.073549955E1
6.841994750E0,8.387208710E0,-6.263275452E0,6.767427063E-1,1.048960771E1
6.852018750E0,8.238418121E0,-6.073919220E0,6.641688538E-1,1.025695608E1
6.862042750E0,8.069868622E0,-5.877826996E0,6.819818115E-1,1.000683411E1
6.872066750E0,7.882458344E0,-5.724845123E0,7.261399841E-1,9.769047062E0
6.882091750E0,7.682623901E0,-5.591622162E0,7.521858215E-1,9.531774857E0
6.892115750E0,7.440277863E0,-5.463488617E0,7.677534485E-1,9.262660951E0
6.902139750E0,7.186106415E0,-5.344037018E0,7.884104919E-1,8.990019364E0
6.912163750E0,6.940467224E0,-5.263205109E0,8.213420105E-1,8.749058007E0
6.922187750E0,6.756499786E0,-5.247936859E0,8.740324402E-1,8.599712981E0
6.932212750E0,6.615493011E0,-5.246589661E0,9.310638428E-1,8.494605979E0
6.942236750E0,6.478228455E0,-5.239554291E0,1.050066376E0,8.397798073E0
6.952260750E0,6.389912109E0,-5.256469116E0,1.203197937E0,8.361167957E0
6.962284750E0,6.310876465E0,-5.254373474E0,1.342558136E0,8.320941335E0
6.972308750E0,6.237678680E0,-5.195845184E0,1.451980591E0,8.247041296E0
6.982333750E0,6.151757355E0,-5.163512421E0,1.506317596E0,8.171595424E0
6.992357750E0,6.132746887E0,-5.132377167E0,1.548080750E0,8.145454792E0
7.002381750E0,6.100863190E0,-5.095553741E0,1.557361450E0,8.100035449E0
7.012405750E0,6.058201904E0,-5.060376892E0,1.591939545E0,8.052545940E0
7.022429750E0,6.071823578E0,-5.072052612E0,1.600920868E0,8.071908503E0
7.032453750E0,6.126609650E0,-5.144801331E0,1.572030945E0,8.153257498E0
7.042478750E0,6.219865723E0,-5.280269623E0,1.518442383E0,8.299014650E0
7.052502750E0,6.341412964E0,-5.406157837E0,1.483864288E0,8.464154663E0
7.062526750E0,6.450386353E0,-5.495821381E0,1.459015961E0,8.598852500E0
7.072550750E0,6.545438690E0,-5.606740723E0,1.435514832E0,8.737219925E0
7.082574750E0,6.696324921E0,-5.752238159E0,1.434766388E0,8.943576794E0
7.092599750E0,6.860982513E0,-5.921386414E0,1.441053314E0,9.176738678E0
7.102623750E0,7.038064270E0,-6.083648987E0,1.435065765E0,9.412998853E0
7.112647750E0,7.217840424E0,-6.243516541E0,1.459465027E0,9.654468258E0
7.122671750E0,7.396868134E0,-6.311774597E0,1.490151215E0,9.837312000E0
7.132695750E0,7.509733429E0,-6.291416931E0,1.519190826E0,9.913927776E0
7.142720750E0,7.563172302E0,-6.246959381E0,1.522783356E0,9.926980706E0
7.152744750E0,7.643555145E0,-6.223158875E0,1.502425690E0,9.970402429E0
7.162768750E0,7.875422974E0,-6.370003510E0,1.366658020E0,1.022090925E1
7.172792750E0,8.223898315E0,-6.775210876E0,1.165177002E0,1.071884431E1
7.182816750E0,8.616531830E0,-7.255711670E0,9.346563721E-1,1.130325418E1
7.192841750E0,8.944499817E0,-7.616311798E0,6.957531738E-1,1.176844743E1
7.202865750E0,9.163793793E0,-7.851173401E0,4.802014160E-1,1.207669797E1
7.212889750E0,9.304800568E0,-8.047714691E0,2.920426941E-1,1.230570251E1
7.222913750E0,9.419013062E0,-8.096064148E0,1.718426514E-1,1.242149716E1
7.232937750E0,9.316027222E0,-7.754175110E0,1.384620667E-1,1.212166517E1
7.242962750E0,9.103618927E0,-7.142846375E0,7.514373779E-2,1.157159360E1
7.252986750E0,8.855884094E0,-6.478228455E0,-1.115180969E-1,1.097299245E1
7.263010750E0,8.656498718E0,-5.833519135E0,-3.634442139E-1,1.044495128E1
7.273034750E0,8.461005249E0,-5.282664642E0,-6.258485413E-1,9.994340496E0
7.283058750E0,8.278534698E0,-4.863236847E0,-9.783654785E-1,9.651031468E0
7.293083750E0,8.184230804E0,-4.681963806E0,-1.320104828E0,9.520771802E0
7.303107750E0,8.105045471E0,-4.649780731E0,-1.604214020E0,9.480808276E0
7.313131750E0,7.993227997E0,-4.708758087E0,-1.720971222E0,9.435350469E0
7.323155750E0,7.952812042E0,-4.886438599E0,-1.737436981E0,9.494376695E0
7.333179750E0,8.014334106E0,-5.198090515E0,-1.661245422E0,9.695846148E0
7.343204750E0,8.195607147E0,-5.543871460E0,-1.514251099E0,1.000976741E1
7.353228750E0,8.520431671E0,-5.874384155E0,-1.325643311E0,1.043376611E1
7.363252750E0,8.835825806E0,-6.153703308E0,-1.150956573E0,1.082887728E1
7.373276750E0,9.319769440E0,-6.436465302E0,-1.090182953E0,1.137869443E1
7.383300750E0,9.952054596E0,-6.651717682E0,-1.098415833E0,1.202061796E1
7.393324750E0,1.056368271E1,-6.812633057E0,-1.259480896E0,1.263287986E1
7.403349750E0,1.110001740E1,-6.949747925E0,-1.553619232E0,1.318799132E1
7.413373750E0,1.139625137E1,-6.889123993E0,-1.945204926E0,1.345802352E1
7.423397750E0,1.154863449E1,-6.726711731E0,-2.312091980E0,1.356338375E1
7.433421750E0,1.165581161E1,-6.464157715E0,-2.581980743E0,1.357607837E1
7.443446750E0,1.165266815E1,-6.114335175E0,-2.838696899E0,1.346209381E1
7.453470750E0,1.145657593E1,-5.756579132E0,-3.022065582E0,1.317285905E1
7.463494750E0,1.107606720E1,-5.339696045E0,-3.063978424E0,1.267199993E1
7.473518750E0,1.055305481E1,-4.914729767E0,-2.962639160E0,1.201244210E1
7.483542750E0,1.001327728E1,-4.573289795E0,-2.763553162E0,1.134979857E1
7.493566750E0,9.546248474E0,-4.357288971E0,-2.508932648E0,1.078941936E1
7.503591750E0,9.125772858E0,-4.201912079E0,-2.188149719E0,1.028220767E1
7.513615750E0,8.751700745E0,-4.106260986E0,-1.872755585E0,9.846870502E0
7.523636000E0,8.446635132E0,-4.073030090E0,-1.648072815E0,9.521100943E0
7.533660000E0,8.237969055E0,-4.082161102E0,-1.393601990E0,9.298940796E0
7.543684000E0,8.103698273E0,-4.104015656E0,-1.145567780E0,9.155610069E0
7.553709000E0,8.028105469E0,-4.129462738E0,-9.428892517E-1,9.077002813E0
7.563733000E0,7.991132355E0,-4.173620911E0,-8.186476135E-1,9.052485390E0
7.573757000E0,7.962841187E0,-4.229305115E0,-6.833290100E-1,9.042167884E0
7.583781000E0,7.902366943E0,-4.282594299E0,-5.504054260E-1,9.005052103E0
7.593805000E0,7.880961456E0,-4.329147491E0,-4.176315308E-1,9.001415865E0
7.603830000E0,7.926317139E0,-4.409230957E0,-3.043171692E-1,9.075264732E0
7.613854000E0,7.925119629E0,-4.470453644E0,-1.692979431E-1,9.100611996E0
7.623878000E0,7.922874298E0,-4.490511932E0,4.490661621E-4,9.106955296E0
7.633902000E0,7.941585388E0,-4.553231506E0,8.158035278E-2,9.154635491E0
7.643926000E0,7.963589630E0,-4.691394196E0,1.350192261E-1,9.243709725E0
7.653951000E0,8.010442200E0,-4.733007660E0,2.424957275E-1,9.307381475E0
7.663975000E0,8.073161774E0,-4.720733185E0,3.031196594E-1,9.356983721E0
7.673999000E0,8.155640259E0,-4.742288361E0,2.691403198E-1,9.438019042E0
7.684023000E0,8.240214386E0,-4.826712799E0,2.270777893E-1,9.552478940E0
7.694048000E0,8.359067230E0,-4.941673737E0,2.544708252E-1,9.713850919E0
7.704072000E0,8.542884979E0,-5.118007050E0,2.570155334E-1,9.961974549E0
7.714096000E0,8.786727905E0,-5.319188690E0,2.769241333E-1,1.027506898E1
7.724120000E0,9.031319275E0,-5.542075195E0,2.815644836E-1,1.059993414E1
7.734144000E0,9.303303680E0,-5.773344269E0,3.388952637E-1,1.095435135E1
7.744168000E0,9.517358551E0,-5.918093262E0,4.161346436E-1,1.121503944E1
7.754193000E0,9.708660736E0,-6.034102020E0,4.878355408E-1,1.144143627E1
7.764217000E0,9.948462067E0,-6.162984009E0,5.798941040E-1,1.171710487E1
7.774241000E0,1.025247986E1,-6.387068024E0,6.484515381E-1,1.209663055E1
7.784265000E0,1.065140030E1,-6.785389709E0,6.803352356E-1,1.264739886E1
7.794289000E0,1.116303635E1,-7.307503967E0,7.517367554E-1,1.336331182E1
7.804314000E0,1.171029831E1,-7.809859314E0,8.647517395E-1,1.410222623E1
7.814338000E0,1.216086136E1,-8.160280609E0,9.234297180E-1,1.467410819E1
7.824362000E0,1.242042160E1,-8.381819916E0,9.300160217E-1,1.501288472E1
7.834386000E0,1.260034744E1,-8.652307434E0,9.490264893E-1,1.531443211E1
7.844410000E0,1.268372406E1,-8.920100555E0,9.530680847E-1,1.553555241E1
7.854435000E0,1.255469238E1,-8.939410400E0,9.253756714E-1,1.543987303E1
7.864459000E0,1.219319412E1,-8.638386383E0,9.488768005E-1,1.497317833E1
7.874483000E0,1.152677994E1,-8.019722900E0,9.755213928E-1,1.407601695E1
7.884507000E0,1.072654404E1,-7.287595367E0,9.913883972E-1,1.300579272E1
7.894531000E0,9.992320862E0,-6.681356049E0,1.006357269E0,1.206232771E1
7.904556000E0,9.430988159E0,-6.451134796E0,9.497749329E-1,1.146572066E1
7.914580000E0,9.042994995E0,-6.446943512E0,9.283694458E-1,1.114453718E1
7.924604000E0,8.867410126E0,-6.573131104E0,8.970845032E-1,1.107437472E1
7.934628000E0,8.801397400E0,-6.919510803E0,8.472381592E-1,1.122773523E1
7.944652000E0,8.717571716E0,-7.341333618E0,9.029223633E-1,1.143269455E1
7.954677000E0,8.678802338E0,-7.707771606E0,1.036295013E0,1.165355141E1
7.964701000E0,8.639434204E0,-8.027656403E0,1.173409882E0,1.185158139E1
7.974725000E0,8.562793579E0,-8.241112518E0,1.323397980E0,1.195779042E1
7.984749000E0,8.413254547E0,-8.309071198E0,1.505419464E0,1.192014278E1
7.994774000E0,8.223748627E0,-8.255183258E0,1.660197601E0,1.177006152E1
8.004798000E0,8.049510956E0,-8.059540100E0,1.739382935E0,1.152285842E1
8.014822000E0,7.875422974E0,-7.735014954E0,1.753603363E0,1.117711359E1
8.024846000E0,7.718848572E0,-7.358547821E0,1.686243439E0,1.079686372E1
8.034870000E0,7.663314056E0,-6.963968353E0,1.602268066E0,1.047809623E1
8.044895000E0,7.654033356E0,-6.575226746E0,1.494641876E0,1.020057781E1
8.054919000E0,7.567962341E0,-6.156397705E0,1.347797241E0,9.848443740E0
8.064943000E0,7.460336151E0,-5.789360962E0,1.176104279E0,9.516119856E0
8.074967000E0,7.370073853E0,-5.479804688E0,1.016835480E0,9.240140821E0
8.084991000E0,7.278763733E0,-5.215005341E0,9.309141541E-1,9.002404309E0
8.095016000E0,7.135960693E0,-5.028642883E0,8.852590942E-1,8.774557991E0
8.105040000E0,6.962022400E0,-4.909191284E0,8.894503784E-1,8.565105775E0
8.115064000E0,6.725813599E0,-4.837340698E0,9.280700684E-1,8.336530912E0
8.125088000E0,6.427633667E0,-4.787644043E0,9.375004578E-1,8.069381460E0
8.135112000E0,6.183191986E0,-4.810696106E0,1.020428009E0,7.900375528E0
8.145137000E0,5.985004120E0,-4.816234589E0,1.083446960E0,7.758237380E0
8.155161000E0,5.785618744E0,-4.818629608E0,1.129700775E0,7.613724410E0
8.165185000E0,5.592969360E0,-4.808450775E0,1.163530426E0,7.467014676E0
8.175209000E0,5.474565582E0,-4.815037079E0,1.174757080E0,7.384815812E0
8.185233000E0,5.382507019E0,-4.842280426E0,1.159638519E0,7.332381812E0
8.195258000E0,5.313500519E0,-4.848866730E0,1.146316223E0,7.284149725E0
8.205282000E0,5.290149078E0,-4.850513306E0,1.073118439E0,7.257047594E0
8.215306000E0,5.273833008E0,-4.829856262E0,9.596543884E-1,7.215383750E0
8.225330000E0,5.281616821E0,-4.800068207E0,7.720944214E-1,7.178597414E0
8.235354000E0,5.259462891E0,-4.772824860E0,5.281018066E-1,7.121846569E0
8.245379000E0,5.235662384E0,-4.762047272E0,3.162922668E-1,7.084440388E0
8.255403000E0,5.269342346E0,-4.783602448E0,1.360670471E-1,7.118099141E0
8.265427000E0,5.312153320E0,-4.817881165E0,-2.634521484E-2,7.171586009E0
8.275451000E0,5.349425812E0,-4.837789764E0,-1.321751404E-1,7.213739432E0
8.285475000E0,5.387297058E0,-4.914430389E0,-2.170486450E-1,7.295320813E0
8.295500000E0,5.501659241E0,-5.073250122E0,-3.275189209E-1,7.490887120E0
8.305524000E0,5.748046875E0,-5.333858185E0,-3.836521912E-1,7.850941027E0
8.315548000E0,6.031108246E0,-5.603597260E0,-3.752696228E-1,8.241079796E0
8.325572000E0,6.321204987E0,-5.814209290E0,-3.546125793E-1,8.595836913E0
8.335596000E0,6.610852661E0,-5.965394897E0,-3.616479492E-1,8.911795466E0
8.345621000E0,6.920408936E0,-6.145769806E0,-5.020559692E-1,9.269013245E0
8.355645000E0,7.269033966E0,-6.305038605E0,-6.036946106E-1,9.641411400E0
8.365669000E0,7.588769073E0,-6.389013977E0,-6.948550415E-1,9.944432572E0
8.375693000E0,7.938441925E0,-6.589447174E0,-8.646020508E-1,1.035312566E1
8.385717000E0,8.429869995E0,-7.021149445E0,-1.070573730E0,1.102294769E1
8.395742000E0,9.015152893E0,-7.604785767E0,-1.293460236E0,1.186502371E1
8.405766000E0,9.582024078E0,-8.123307495E0,-1.397044830E0,1.263942421E1
8.415790000E0,1.006432114E1,-8.487500153E0,-1.434317322E0,1.324331850E1
8.425814000E0,1.054227722E1,-8.879684601E0,-1.414259033E0,1.385599279E1
8.435839000E0,1.104867416E1,-9.270222473E0,-1.280287628E0,1.447927353E1
8.445863000E0,1.143532013E1,-9.354946289E0,-1.010548553E0,1.480887487E1
8.455887000E0,1.166419418E1,-9.021290131E0,-7.402107239E-1,1.476431554E1
8.465911000E0,1.170191574E1,-8.398884430E0,-6.246510315E-1,1.441756847E1
8.475935000E0,1.151420609E1,-7.667355652E0,-6.701564026E-1,1.384970736E1
8.485960000E0,1.125030487E1,-6.950945435E0,-7.767347717E-1,1.324720042E1
8.495984000E0,1.087398743E1,-6.178401947E0,-1.009351044E0,1.254731217E1
8.506008000E0,1.041294617E1,-5.460345154E0,-1.329086151E0,1.183263652E1
8.516032000E0,9.989626465E0,-4.981191559E0,-1.664987640E0,1.128614594E1
8.526059250E0,9.680668945E0,-4.730912018E0,-1.880539398E0,1.093770123E1
8.536084250E0,9.416318665E0,-4.575834503E0,-1.961520996E0,1.065142635E1
8.546108250E0,9.137897644E0,-4.520749054E0,-2.018103333E0,1.039283823E1
8.556132250E0,8.896300049E0,-4.547992401E0,-1.932182007E0,1.017652774E1
8.566156250E0,8.697513428E0,-4.562512207E0,-1.749262390E0,9.976130331E0
8.576180250E0,8.758287048E0,-4.702321472E0,-1.556912384E0,1.006197771E1
8.586205250E0,8.956025848E0,-4.831802216E0,-1.418150940E0,1.027462232E1
8.596229250E0,9.171876984E0,-4.953499146E0,-1.330133972E0,1.050855545E1
8.606253250E0,9.372010803E0,-5.127437439E0,-1.415755920E0,1.077634289E1
8.616277250E0,9.648785248E0,-5.296436005E0,-1.466650085E0,1.110415929E1
8.626301250E0,9.903555450E0,-5.417983246E0,-1.402283936E0,1.137547156E1
8.636326250E0,1.016012192E1,-5.500461731E0,-1.293310547E0,1.162565305E1
8.646350250E0,1.038196060E1,-5.591622162E0,-1.198557587E0,1.185275852E1
8.656374250E0,1.049422714E1,-5.635181580E0,-1.123713226E0,1.196439744E1
8.666398250E0,1.040890457E1,-5.609285431E0,-1.057251434E0,1.187127449E1
8.676422250E0,1.016116974E1,-5.501958618E0,-9.479786682E-1,1.159394595E1
8.686447250E0,9.874665527E0,-5.340444489E0,-7.131170654E-1,1.124890673E1
8.696471250E0,9.569599915E0,-5.118156738E0,-5.200186157E-1,1.086476830E1
8.706495250E0,9.235494690E0,-4.888833618E0,-3.715274048E-1,1.045624641E1
8.716519250E0,8.845256195E0,-4.721182251E0,-2.071691895E-1,1.002851126E1
8.726544250E0,8.461005249E0,-4.562512207E0,-3.637435913E-2,9.612827397E0
8.736568250E0,8.158184967E0,-4.423002319E0,9.011260986E-2,9.280466139E0
8.746592250E0,7.936196594E0,-4.375401306E0,1.959425354E-1,9.064532335E0
8.756616250E0,7.752229156E0,-4.367168427E0,2.659968567E-1,8.901683621E0
8.766640250E0,7.571554871E0,-4.353247375E0,3.540138245E-1,8.740968577E0
8.776665250E0,7.458390198E0,-4.351151733E0,4.429289246E-1,8.646172088E0
8.786689250E0,7.406148834E0,-4.370611267E0,4.836442566E-1,8.613198893E0
8.796713250E0,7.361092529E0,-4.397704926E0,4.857398987E-1,8.588447769E0
8.806737250E0,7.361541595E0,-4.408632202E0,5.051994324E-1,8.595554608E0
8.816761250E0,7.445367279E0,-4.401596832E0,4.887336731E-1,8.662933060E0
8.826786250E0,7.591613159E0,-4.404590607E0,3.896397400E-1,8.785489622E0
8.836810250E0,7.747289429E0,-4.412973175E0,2.853067017E-1,8.920550748E0
8.846834250E0,7.846832428E0,-4.396657104E0,2.615061951E-1,8.998430882E0
8.856858250E0,7.956254883E0,-4.390070801E0,2.032772827E-1,9.089336337E0
8.866882250E0,8.076155548E0,-4.398004303E0,1.597178650E-1,9.197403986E0
8.876907250E0,8.170160065E0,-4.431235199E0,1.258882141E-1,9.295332631E0
8.886931250E0,8.206534424E0,-4.474644928E0,1.236428833E-1,9.347991337E0
8.896955250E0,8.216862946E0,-4.506977692E0,1.884580994E-1,9.373643957E0
8.906979250E0,8.220754852E0,-4.556225281E0,2.272274780E-1,9.401682375E0
8.917004250E0,8.280480652E0,-4.678520966E0,2.237846375E-1,9.513411471E0
8.927028250E0,8.295599213E0,-4.790338440E0,2.570155334E-1,9.582816165E0
8.937052250E0,8.322692871E0,-4.943020935E0,3.731739807E-1,9.687101290E0
8.947076250E0,8.437204742E0,-5.210514679E0,4.504133606E-1,9.926669093E0
8.957100250E0,8.625064087E0,-5.522915039E0,4.902305603E-1,1.025351876E1
8.967125250E0,8.874445496E0,-5.831273804E0,4.861889648E-1,1.062995375E1
8.977149250E0,9.097182312E0,-6.129902802E0,4.951702881E-1,1.098087556E1
8.987173250E0,9.340276794E0,-6.417903900E0,5.879772949E-1,1.134795040E1
8.997197250E0,9.624984741E0,-6.649921417E0,6.578819275E-1,1.171727762E1
9.007221250E0,9.926008759E0,-6.886728973E0,6.387217712E-1,1.209796063E1
9.017246250E0,1.026969406E1,-7.177723846E0,5.557942200E-1,1.254174003E1
9.027270250E0,1.062580353E1,-7.489974518E0,5.469625854E-1,1.301178646E1
9.037294250E0,1.101244949E1,-7.829169159E0,5.899232483E-1,1.352471600E1
9.047318250E0,1.135733231E1,-8.076903992E0,5.935157776E-1,1.394910880E1
9.057343250E0,1.156270523E1,-8.188272400E0,5.526507568E-1,1.417918827E1
9.067367250E0,1.166105072E1,-8.242310028E0,5.322930908E-1,1.428982556E1
9.077391250E0,1.169203629E1,-8.299790497E0,5.523513794E-1,1.434905317E1
9.087415250E0,1.164054337E1,-8.329428864E0,6.051914978E-1,1.432647520E1
9.097439250E0,1.151076324E1,-8.271349640E0,6.132746887E-1,1.418763550E1
9.107464250E0,1.130000153E1,-8.148904266E0,5.730084229E-1,1.394356532E1
9.117488250E0,1.096559692E1,-7.889793091E0,6.206094360E-1,1.352325061E1
9.127512250E0,1.044587769E1,-7.467521210E0,6.697073364E-1,1.285802246E1
9.137536250E0,9.752669220E0,-6.903045044E0,6.873706055E-1,1.196825243E1
9.147561250E0,9.100475464E0,-6.357729034E0,6.176156616E-1,1.111849006E1
9.157585250E0,8.543633423E0,-5.919290771E0,5.301974487E-1,1.040734282E1
9.167609250E0,8.137827301E0,-5.606591034E0,4.873864746E-1,9.894222647E0
9.177633250E0,7.876021729E0,-5.486241302E0,4.785548401E-1,9.610388995E0
9.187657250E0,7.719896393E0,-5.508395233E0,4.288581848E-1,9.493320689E0
9.197682250E0,7.635322266E0,-5.687722321E0,3.950285339E-1,9.529133163E0
9.207706250E0,7.616910553E0,-5.974226532E0,4.155358887E-1,9.689240378E0
9.217730250E0,7.587272186E0,-6.260880432E0,4.710704041E-1,9.848209499E0
9.227754250E0,7.568261719E0,-6.545289001E0,5.502557373E-1,1.002108651E1
9.237778250E0,7.553592224E0,-6.787635040E0,6.307882690E-1,1.017480411E1
9.247803250E0,7.528145142E0,-6.935228119E0,7.241940308E-1,1.026132620E1
9.257827250E0,7.495513000E0,-7.006779327E0,7.996371460E-1,1.029160295E1
9.267851250E0,7.441774750E0,-7.015910339E0,8.857081604E-1,1.026584085E1
9.277875250E0,7.366032257E0,-6.924600220E0,9.460327148E-1,1.015398923E1
9.287900250E0,7.329358521E0,-6.768474884E0,9.488768005E-1,1.002158250E1
9.297924250E0,7.293582916E0,-6.544989624E0,9.379495239E-1,9.844439560E0
9.307948250E0,7.275919647E0,-6.287075958E0,9.135502625E-1,9.659239354E0
9.317972250E0,7.253166962E0,-5.981411591E0,9.072633362E-1,9.445043269E0
9.327997250E0,7.198231201E0,-5.616620178E0,8.779243469E-1,9.172333717E0
9.338021250E0,7.115453339E0,-5.275030518E0,7.779322815E-1,8.891614128E0
9.348045250E0,7.003486176E0,-5.004393311E0,6.592291260E-1,8.632922683E0
9.358069250E0,6.900200958E0,-4.794529724E0,6.087840271E-1,8.424423217E0
9.368093250E0,6.815926208E0,-4.616849213E0,6.515950012E-1,8.258130707E0
9.378118250E0,6.732848969E0,-4.541406097E0,6.812333679E-1,8.149828432E0
9.388142250E0,6.605613556E0,-4.540957031E0,7.696994019E-1,8.052754707E0
9.398166250E0,6.465953979E0,-4.572691040E0,9.469308472E-1,7.975885044E0
9.408190250E0,6.316414948E0,-4.633165283E0,1.116827545E0,7.912687413E0
9.418214250E0,6.193221130E0,-4.730612640E0,1.234183502E0,7.890367092E0
9.428239250E0,6.098767548E0,-4.837191010E0,1.354383545E0,7.901122531E0
9.438263250E0,6.046376495E0,-4.891228638E0,1.507964172E0,7.921915315E0
9.448287250E0,6.006708984E0,-4.957989807E0,1.629361725E0,7.957200223E0
9.458311250E0,5.996679840E0,-5.019062805E0,1.701062622E0,8.002797923E0
9.468336250E0,6.030808868E0,-5.052593079E0,1.736838226E0,8.057044089E0
9.478360250E0,6.106251984E0,-5.100493469E0,1.671124878E0,8.129821971E0
9.488384250E0,6.148464203E0,-5.120701447E0,1.557660828E0,8.151779107E0
9.498408250E0,6.170767822E0,-5.101541290E0,1.448088684E0,8.136403376E0
9.508433250E0,6.194119263E0,-5.030439148E0,1.285826111E0,8.082436529E0
9.518453625E0,6.235732727E0,-4.980592804E0,1.130299530E0,8.060288106E0
9.528477625E0,6.294111328E0,-4.996908875E0,9.557624817E-1,8.093109269E0
9.538501625E0,6.361471252E0,-5.017565918E0,7.496411133E-1,8.136722069E0
9.548525625E0,6.447991333E0,-5.050347748E0,5.828878784E-1,8.211112159E0
9.558550625E0,6.572232971E0,-5.126090240E0,5.060975647E-1,8.350280362E0
9.568574625E0,6.788084106E0,-5.274282074E0,4.546046448E-1,8.608298474E0
9.578598625E0,7.060218201E0,-5.499114532E0,3.992198181E-1,8.958030930E0
9.588622625E0,7.363637238E0,-5.736969910E0,2.704875183E-1,9.338583437E0
9.598647625E0,7.571854248E0,-5.922134857E0,8.861572266E-2,9.613142606E0
9.608671625E0,7.770491180E0,-6.116879883E0,2.874023438E-2,9.889265832E0
9.618695625E0,8.052355042E0,-6.332581329E0,3.412902832E-2,1.024417751E1
9.628719625E0,8.394393768E0,-6.500532074E0,3.113525391E-2,1.061714337E1
9.638743625E0,8.624165955E0,-6.673721924E0,9.160949707E-2,1.090519120E1
9.648768625E0,8.727900238E0,-6.775809631E0,2.098635864E-1,1.105132940E1
9.658792625E0,8.916358337E0,-7.011120300E0,2.637515259E-1,1.134578418E1
9.668816625E0,9.182804260E0,-7.381450195E0,2.136058044E-1,1.178368909E1
9.678840625E0,9.547146606E0,-7.866441650E0,2.136058044E-1,1.237232961E1
9.688865625E0,1.010758118E1,-8.407117310E0,7.095245361E-2,1.314716140E1
9.698889625E0,1.057221497E1,-8.671916656E0,2.676434326E-1,1.367645790E1
9.708913625E0,1.077384567E1,-8.950936432E0,5.249583435E-1,1.401679688E1
9.718937625E0,1.098146393E1,-9.042994995E0,4.334985352E-1,1.423222504E1
9.728962625E0,1.112037506E1,-8.903485107E0,4.125421143E-1,1.425149043E1
9.738986625E0,1.127081223E1,-8.823102264E0,4.733157349E-1,1.432139552E1
9.749010625E0,1.117351456E1,-8.469687195E0,6.045927429E-1,1.403383629E1
9.759034625E0,1.070738388E1,-7.791297913E0,7.481442261E-1,1.326318636E1
9.769059625E0,1.032882111E1,-7.154222717E0,7.183561707E-1,1.258505001E1
9.779083625E0,1.011895752E1,-6.592590637E0,6.424639893E-1,1.209414373E1
9.789107625E0,9.875413971E0,-6.053711243E0,5.836363220E-1,1.159792448E1
9.799131625E0,9.593101044E0,-5.563031616E0,4.867877197E-1,1.110008426E1
9.809155625E0,9.240584106E0,-5.154980164E0,3.906875610E-1,1.058843010E1
9.819180625E0,8.962911530E0,-4.886139221E0,3.074606323E-1,1.021286794E1
9.829204625E0,8.786727905E0,-4.759352875E0,1.701960754E-1,9.994348091E0
9.839228625E0,8.635691986E0,-4.657863922E0,5.388793945E-3,9.811773613E0
9.849252625E0,8.507109375E0,-4.568499756E0,-1.601669312E-1,9.657523150E0
9.859277625E0,8.440797272E0,-4.559368744E0,-2.299218750E-1,9.596237075E0
9.869301625E0,8.471034393E0,-4.625980225E0,-1.968406677E-1,9.653852235E0
9.879325625E0,8.514593811E0,-4.718936920E0,-1.133143616E-1,9.735477059E0
9.889349625E0,8.520281982E0,-4.829556885E0,-3.397933960E-2,9.793925636E0
9.899374625E0,8.620423737E0,-4.953948212E0,1.079255676E-1,9.943085849E0
9.909398625E0,8.796457672E0,-5.108277283E0,3.079096985E-1,1.017678597E1
9.919422625E0,9.022637329E0,-5.243296509E0,4.788542175E-1,1.044650391E1
9.929446625E0,9.241631927E0,-5.348228302E0,5.474116516E-1,1.069163066E1
9.939471625E0,9.355395355E0,-5.354964294E0,5.264552307E-1,1.079241493E1
9.949495625E0,9.355994110E0,-5.282964020E0,5.309458923E-1,1.075761303E1
9.959519625E0,9.277557220E0,-5.160219269E0,5.292993164E-1,1.062925626E1
9.969543625E0,9.193432159E0,-4.999603271E0,4.770579529E-1,1.047582035E1
9.979568625E0,9.002279663E0,-4.803960114E0,4.806504822E-1,1.021518951E1
9.989592625E0,8.743617554E0,-4.644541626E0,5.426216125E-1,9.915495603E0
9.999616625E0,8.600964203E0,-4.559219055E0,6.991960144E-1,9.759709969E0
1.000964063E1,8.407716064E0,-4.495601349E0,8.699908447E-1,9.573766499E0
1.001966463E1,8.032745819E0,-4.385879517E0,1.046324158E0,9.211717471E0
1.002968963E1,7.695048065E0,-4.297712860E0,1.240620117E0,8.900743723E0
1.003971363E1,7.520960083E0,-4.293970642E0,1.375190277E0,8.768932246E0
1.004973762E1,7.450756073E0,-4.370311890E0,1.409169617E0,8.752094097E0
1.005976163E1,7.376211090E0,-4.464615784E0,1.454225922E0,8.743915437E0
1.006978663E1,7.389832764E0,-4.574487305E0,1.549278259E0,8.828126953E0
1.007981063E1,7.433392181E0,-4.633913727E0,1.565145264E0,8.898210800E0
1.008983463E1,7.438780975E0,-4.615502014E0,1.495390320E0,8.881132442E0
1.009985862E1,7.458839264E0,-4.628075867E0,1.375190277E0,8.885072745E0
1.010988363E1,7.582781525E0,-4.711302795E0,1.262324982E0,9.016008764E0
1.011990763E1,7.714058533E0,-4.744833069E0,1.197360077E0,9.135305745E0
1.012993163E1,7.804021454E0,-4.719535675E0,1.175355835E0,9.195554860E0
1.013995563E1,7.858807526E0,-4.730163574E0,1.207838287E0,9.251712084E0
1.014998062E1,7.860753479E0,-4.756808167E0,1.282532959E0,9.277044787E0
1.016000463E1,7.887098694E0,-4.806355133E0,1.392853546E0,9.340632552E0
1.017002862E1,7.982749786E0,-4.881648560E0,1.526375885E0,9.480749451E0
1.018005263E1,8.103847961E0,-4.948409729E0,1.571581879E0,9.624395058E0
1.019007763E1,8.137527924E0,-4.954696655E0,1.514999542E0,9.646947873E0
1.020010162E1,8.170010376E0,-5.164410553E0,1.706900482E0,9.814974027E0
1.021012563E1,8.173004150E0,-5.323829041E0,1.938169556E0,9.944729947E0
1.022014962E1,8.257428589E0,-5.406906281E0,1.985022125E0,1.006777410E1
1.023017463E1,8.426427155E0,-5.675148468E0,1.942660217E0,1.034339951E1
1.024019863E1,8.632548523E0,-6.063141632E0,1.908381500E0,1.072028453E1
1.025022262E1,8.836424561E0,-6.360273743E0,1.922601929E0,1.105585272E1
1.026024663E1,9.091943207E0,-6.587351532E0,1.882784729E0,1.138426589E1
1.027027162E1,9.450896759E0,-6.853797455E0,1.797013092E0,1.181199582E1
1.028029563E1,9.729916534E0,-7.077881470E0,1.723366241E0,1.215473871E1
1.029031963E1,1.001806732E1,-7.320077820E0,1.697769470E0,1.252308402E1
1.030034363E1,1.042327469E1,-7.677085419E0,1.653162231E0,1.305048816E1
1.031036863E1,1.088775879E1,-8.172255707E0,1.604812775E0,1.370782546E1
1.032039262E1,1.131107849E1,-8.569379883E0,1.554517365E0,1.427554876E1
1.033041663E1,1.154713760E1,-8.699758759E0,1.529070282E0,1.453823391E1
1.034044063E1,1.155971146E1,-8.709338837E0,1.451681213E0,1.454602661E1
1.035046563E1,1.145373184E1,-8.721313934E0,1.352736969E0,1.445957078E1
1.036048963E1,1.127874573E1,-8.696615295E0,1.295256500E0,1.430101088E1
1.037051362E1,1.092338470E1,-8.443641357E0,1.284029846E0,1.386593471E1
1.038053763E1,1.035172348E1,-7.871231689E0,1.291065216E0,1.306833259E1
1.039056262E1,9.739945679E0,-7.191644897E0,1.290616150E0,1.217587731E1
1.040058663E1,9.195527802E0,-6.605912933E0,1.306932220E0,1.139753873E1
1.041061063E1,8.730145569E0,-6.167025604E0,1.274599457E0,1.076439735E1
1.042063462E1,8.264913025E0,-5.816454620E0,1.196611633E0,1.017702368E1
1.043065963E1,7.868686981E0,-5.582042084E0,1.087488556E0,9.708659021E0
1.044068362E1,7.602839813E0,-5.483097839E0,9.785151672E-1,9.424703023E0
1.045070763E1,7.498357086E0,-5.570066986E0,8.511300659E-1,9.379521715E0
1.046073163E1,7.495063934E0,-5.800587616E0,7.351213074E-1,9.505956207E0
1.047075662E1,7.512727203E0,-6.038892059E0,6.225553894E-1,9.659030104E0
1.048078063E1,7.576943665E0,-6.308182068E0,4.860392761E-1,9.871143322E0
1.049080462E1,7.667804718E0,-6.513405304E0,3.706292725E-1,1.006762355E1
1.050082863E1,7.710016937E0,-6.606960754E0,2.998265076E-1,1.015806022E1
1.051085363E1,7.703280945E0,-6.630761261E0,2.357597351E-1,1.016676521E1
1.052087737E1,7.694000244E0,-6.609655151E0,1.649569702E-1,1.014457450E1
1.053090138E1,7.805817719E0,-6.582262115E0,1.625619507E-1,1.021192397E1
1.054092538E1,7.998616791E0,-6.504423981E0,2.815644836E-1,1.031332538E1
1.055095037E1,8.044271851E0,-6.347849579E0,5.019062805E-1,1.025950358E1
1.056097438E1,7.973618774E0,-6.201603699E0,7.176077271E-1,1.012686751E1
1.057099837E1,7.861801300E0,-6.023923187E0,9.475296021E-1,9.949541828E0
1.058102238E1,7.715854797E0,-5.892047424E0,1.094523926E0,9.769780997E0
1.059104738E1,7.413034515E0,-5.711223450E0,1.206790466E0,9.435438371E0
1.060107138E1,7.014114075E0,-5.447172546E0,1.295406189E0,8.974829369E0
1.061109538E1,6.600823517E0,-5.243446198E0,1.467248840E0,8.556717729E0
1.062111937E1,6.219566345E0,-5.103038177E0,1.591191101E0,8.200969045E0
1.063114438E1,5.892646179E0,-4.979544983E0,1.512604523E0,7.861750420E0
1.064116838E1,5.707331543E0,-4.894372101E0,1.280437317E0,7.626796924E0
1.065119238E1,5.769003296E0,-4.778363342E0,5.803431702E-1,7.513384953E0
1.066121638E1,5.464985504E0,-4.736600189E0,1.311422882E0,7.349916863E0
1.067124137E1,4.887935486E0,-4.732408905E0,1.876647491E0,7.057578421E0
1.068126538E1,4.715344391E0,-4.259542236E0,2.045346680E0,6.675448736E0
1.069128938E1,4.951104126E0,-3.975433044E0,2.060914307E0,6.675692304E0
1.070131338E1,5.203030243E0,-4.267924805E0,1.808688812E0,6.968361433E0
1.071133838E1,5.362598419E0,-4.649032288E0,1.569186859E0,7.268652586E0
1.072136237E1,5.467081146E0,-4.748126221E0,1.502575378E0,7.395364199E0
1.073138638E1,5.553900604E0,-4.682861938E0,1.485361176E0,7.414938009E0
1.074141137E1,5.615572357E0,-4.600233765E0,1.211131439E0,7.359595298E0
1.075143538E1,5.629792786E0,-4.512516174E0,8.725355530E-1,7.267646615E0
1.076145938E1,5.677393799E0,-4.503235474E0,5.641767883E-1,7.268440378E0
1.077148337E1,5.735323334E0,-4.535268860E0,2.624043274E-1,7.316519214E0
1.078150838E1,5.902525635E0,-4.513563995E0,4.421804810E-1,7.443627636E0
1.079153237E1,6.005960541E0,-4.634063416E0,4.754113770E-1,7.600797441E0
1.080155638E1,6.206543427E0,-4.915777588E0,-1.936972046E-1,7.919821286E0
1.081158038E1,6.600823517E0,-5.220394135E0,-3.022215271E-1,8.421088046E0
1.082160538E1,7.016958160E0,-5.636379089E0,-1.107696533E-2,9.000366313E0
1.083162938E1,7.445516968E0,-5.991590424E0,2.180964661E-1,9.559416551E0
1.084165337E1,7.704029388E0,-6.171815643E0,4.161346436E-1,9.880108562E0
1.085167738E1,8.022716675E0,-6.424789581E0,6.075865173E-1,1.029616751E1
1.086170238E1,8.390801239E0,-6.756200409E0,7.429051208E-1,1.079831919E1
1.087172638E1,8.792116699E0,-7.185956726E0,7.584727478E-1,1.138044687E1
1.088175038E1,9.303303680E0,-7.811655579E0,7.572752380E-1,1.217156062E1
1.089177437E1,9.866881714E0,-8.495733032E0,7.764353943E-1,1.304360711E1
1.090179938E1,1.034109558E1,-9.062604218E0,7.955955505E-1,1.377323583E1
1.091182338E1,1.079764618E1,-9.477541351E0,8.036787415E-1,1.438953969E1
1.092184738E1,1.131257538E1,-9.868827667E0,7.824229431E-1,1.503264138E1
1.093187138E1,1.170580765E1,-1.016730698E1,7.292834473E-1,1.552198177E1
1.094189637E1,1.178349609E1,-1.009530670E1,7.402107239E-1,1.553428175E1
1.095192038E1,1.159339142E1,-9.576784973E0,8.322692871E-1,1.506035216E1
1.096194437E1,1.120450012E1,-8.775501251E0,8.900491333E-1,1.425981882E1
1.097196838E1,1.077145065E1,-7.904312897E0,8.759783936E-1,1.338916165E1
1.098199338E1,1.043375290E1,-7.137906647E0,8.213420105E-1,1.266836665E1
1.099201737E1,1.014141083E1,-6.499035187E0,7.711962891E-1,1.206981423E1
1.100204138E1,9.934840393E0,-6.034700775E0,6.396199036E-1,1.164163995E1
1.101206637E1,9.792486420E0,-5.729335785E0,3.905378723E-1,1.135211869E1
1.102209038E1,9.597292328E0,-5.499413910E0,1.469943237E-1,1.106224122E1
1.103211438E1,9.376501465E0,-5.289550323E0,-2.754272461E-2,1.076563426E1
1.104213837E1,9.235195312E0,-5.112318878E0,-1.525328064E-1,1.055688889E1
1.105216338E1,9.179810486E0,-4.993316345E0,-2.486329651E-1,1.045293964E1
1.106218737E1,9.144633636E0,-4.912634125E0,-3.679348755E-1,1.038718800E1
1.107221138E1,9.138197021E0,-4.798122253E0,-5.224136353E-1,1.033448296E1
1.108223538E1,9.105265503E0,-4.629872131E0,-7.122189331E-1,1.023957185E1
1.109226038E1,8.950936432E0,-4.431384888E0,-9.907896423E-1,1.003683711E1
1.110228438E1,8.870852966E0,-4.431085510E0,-1.193767548E0,9.987573885E0
1.111230837E1,9.035959625E0,-4.668192444E0,-1.194216614E0,1.024044630E1
1.112233238E1,9.254056091E0,-4.941224670E0,-1.091230774E0,1.054722902E1
1.113235738E1,9.365424500E0,-5.118306427E0,-1.031355286E0,1.072249647E1
1.114238138E1,9.305399323E0,-5.156327362E0,-1.012494507E0,1.068659504E1
1.115240538E1,9.139244843E0,-4.991220703E0,-1.025367737E0,1.046372111E1
1.116243037E1,8.898844757E0,-4.733905792E0,-9.129515076E-1,1.012090819E1
1.117245438E1,8.565637665E0,-4.546944580E0,-6.679110718E-1,9.720646008E0
1.118247837E1,8.198451233E0,-4.492158508E0,-3.845503235E-1,9.356386569E0
1.119250238E1,7.814349976E0,-4.444258118E0,-4.790039063E-2,8.989871534E0
1.120252738E1,7.467670898E0,-4.393813019E0,2.856060791E-1,8.669098703E0
1.121255137E1,7.276668091E0,-4.396357727E0,5.635780334E-1,8.520298115E0
1.122257538E1,7.176676025E0,-4.465962982E0,7.450007629E-1,8.485548319E0
1.123259937E1,7.096742249E0,-4.551285553E0,8.638536072E-1,8.474915562E0
1.124262438E1,7.150480499E0,-4.682113495E0,1.035247192E0,8.609488655E0
1.125264838E1,7.292535095E0,-4.847070465E0,1.155447235E0,8.832339357E0
1.126267237E1,7.407046967E0,-4.941074982E0,1.209933929E0,8.985683438E0
1.127269638E1,7.410489807E0,-4.811444550E0,1.190025330E0,8.915240777E0
1.128272137E1,7.376211090E0,-4.653522949E0,1.150507507E0,8.797012755E0
1.129274538E1,7.253915405E0,-4.511019287E0,1.128054199E0,8.616326943E0
1.130276938E1,7.114255829E0,-4.356989594E0,1.181792450E0,8.425712297E0
1.131279338E1,7.040908356E0,-4.312082977E0,1.174308014E0,8.339511340E0
1.132281838E1,7.029232635E0,-4.413871307E0,1.198407898E0,8.386212068E0
1.133284237E1,7.056475983E0,-4.604425049E0,1.282682648E0,8.522901976E0
1.134286638E1,7.100035400E0,-4.837939453E0,1.307381287E0,8.690535465E0
1.135289038E1,7.146588593E0,-5.093907166E0,1.221759338E0,8.860830356E0
1.136291538E1,6.935826874E0,-5.274132385E0,1.075812836E0,8.779495435E0
1.137293938E1,6.668333130E0,-5.427862701E0,9.135502625E-1,8.646556211E0
1.138296337E1,6.404731293E0,-5.816753998E0,7.406597900E-1,8.683535393E0
1.139298838E1,6.108946381E0,-6.282285919E0,7.038363647E-1,8.791002666E0
1.140301237E1,5.988896027E0,-6.557563477E0,6.740483093E-1,8.906337939E0
1.141303638E1,6.161487122E0,-6.991511078E0,4.641847229E-1,9.330627962E0
1.142306038E1,6.406078491E0,-7.625442810E0,1.657054138E-1,9.960556107E0
1.143308537E1,6.659651184E0,-8.187973022E0,3.517684937E-2,1.055438741E1
1.144310938E1,6.992259521E0,-8.726553040E0,4.206253052E-2,1.118240540E1
1.145313337E1,7.384593658E0,-9.237889709E0,1.511856079E-2,1.182670953E1
1.146315738E1,7.820786591E0,-9.539811859E0,1.990859985E-2,1.233584653E1
1.147318238E1,8.062683563E0,-9.649234314E0,1.085243225E-1,1.257483068E1
1.148320638E1,7.783663788E0,-9.841434631E0,4.676275635E-1,1.255619103E1
1.149323038E1,7.602690125E0,-9.843081207E0,7.183561707E-1,1.245805685E1
1.150325437E1,7.590864716E0,-9.875713348E0,9.500743103E-1,1.249214083E1
1.151327938E1,7.726333008E0,-1.023107437E1,1.091979218E0,1.286714899E1
1.152330400E1,7.999963989E0,-1.055724609E1,1.285826111E0,1.330820114E1
1.153332800E1,8.231981506E0,-1.059451859E1,1.559157715E0,1.350704691E1
1.154335300E1,8.275241547E0,-1.038240967E1,1.786534882E0,1.339648312E1
1.155337700E1,8.225993958E0,-1.001642075E1,1.906435547E0,1.310076935E1
1.156340100E1,7.990383911E0,-9.360484772E0,2.028880920E0,1.247322204E1
1.157342500E1,7.554789734E0,-8.500822449E0,2.181264038E0,1.158001481E1
1.158345000E1,7.037615204E0,-7.646997986E0,2.283501434E0,1.064044100E1
1.159347400E1,6.352040863E0,-6.755901031E0,2.273472290E0,9.547737854E0
1.160349800E1,5.665119324E0,-5.929768982E0,2.238145752E0,8.500884280E0
1.161352200E1,5.032235413E0,-5.149441681E0,2.231709137E0,7.537948563E0
1.162354700E1,4.491859131E0,-4.455784149E0,2.226470032E0,6.707307928E0
1.163357100E1,3.956721954E0,-3.822600861E0,2.188748474E0,5.921025743E0
1.164359500E1,3.459306335E0,-3.251987457E0,2.096689911E0,5.190214960E0
1.165362000E1,3.045716400E0,-2.844235382E0,1.887574768E0,4.574822598E0
1.166364400E1,2.668500824E0,-2.539618835E0,1.653012543E0,4.037698719E0
1.167366800E1,2.385140076E0,-2.337988129E0,1.405128021E0,3.623460560E0
1.168369200E1,2.092049561E0,-2.219584351E0,1.126707001E0,3.251568040E0
1.169371700E1,1.790426788E0,-2.097288666E0,8.669970703E-1,2.890662857E0
1.170374100E1,1.544338531E0,-1.943558350E0,6.047424316E-1,2.555017410E0
1.171376500E1,1.432371368E0,-1.833537140E0,3.561094666E-1,2.353796961E0
1.172378900E1,1.423539734E0,-1.759590912E0,1.414558411E-1,2.267737927E0
1.173381400E1,1.469643860E0,-1.741927643E0,-1.264869690E-1,2.282578354E0
1.174383800E1,1.653461609E0,-1.918560333E0,-4.426295471E-1,2.571133983E0
1.175386200E1,1.947899323E0,-2.270777893E0,-7.479945374E-1,3.083867675E0
1.176388600E1,2.423161011E0,-2.830014954E0,-9.604028320E-1,3.847475474E0
1.177391100E1,3.175795898E0,-3.701951752E0,-1.218615875E0,5.027439807E0
1.178393500E1,4.338428192E0,-5.041665802E0,-1.444346466E0,6.806356584E0
1.179395900E1,6.001020813E0,-7.077432404E0,-1.514251099E0,9.401875165E0
1.180398400E1,7.707771606E0,-8.554111633E0,-1.269060974E0,1.158417389E1
1.181400800E1,9.048383789E0,-8.950786743E0,-7.810757446E-1,1.275146705E1
1.182403200E1,1.011102402E1,-9.493558044E0,-6.283932495E-1,1.388363530E1
1.183405600E1,1.117860397E1,-1.075034454E1,-7.116201782E-1,1.552538237E1
1.184408100E1,1.237012619E1,-1.244901215E1,-3.198847961E-1,1.755278473E1
1.185410500E1,1.360969849E1,-1.416489395E1,3.242257690E-1,1.964620156E1
1.186412900E1,1.483684662E1,-1.550370987E1,7.972421265E-1,2.147399898E1
1.187415400E1,1.590038498E1,-1.652144348E1,8.187973022E-1,2.294451495E1
1.188417800E1,1.694281723E1,-1.758393402E1,9.331594849E-1,2.443613263E1
1.189420200E1,1.826875992E1,-1.905372757E1,1.041833496E0,2.641737194E1
1.190422600E1,1.951686447E1,-2.098650833E1,6.821315002E-1,2.866717346E1
1.191425100E1,2.087513992E1,-2.314367249E1,3.778143311E-1,3.116959715E1
1.192427500E1,2.249267624E1,-2.528571808E1,3.276686096E-1,3.384369055E1
1.193429900E1,2.393792084E1,-2.713766693E1,1.231938171E-1,3.618690643E1
1.194432300E1,2.513378403E1,-2.834176300E1,-3.802093506E-2,3.788091967E1
1.195434800E1,2.536625061E1,-2.823323868E1,-8.128097534E-2,3.795482898E1
1.196437200E1,2.432531525E1,-2.695579514E1,-8.352630615E-2,3.630899103E1
1.197439600E1,2.281735107E1,-2.475552063E1,-1.155596924E-1,3.366720460E1
1.198442100E1,2.128618515E1,-2.205558517E1,-3.188369751E-1,3.065374647E1
1.199444500E1,1.965787125E1,-1.933020264E1,-7.789801025E-1,2.758070786E1
1.200446900E1,1.797641785E1,-1.627161301E1,-1.218765564E0,2.427761063E1
1.201449300E1,1.559831314E1,-1.256681717E1,-1.701362000E0,2.010290773E1
1.202451800E1,1.233105743E1,-8.813671875E0,-2.146386566E0,1.530825805E1
1.203454200E1,8.351283417E0,-5.519921265E0,-2.116598511E0,1.023198196E1
1.204456600E1,4.156855774E0,-2.586022339E0,-1.390608215E0,5.089278207E0
1.205459000E1,7.744894409E-1,1.348695374E-1,-7.147636414E-1,1.062502117E0
1.206461500E1,-1.202299805E0,2.433639221E0,-5.059478760E-1,2.761178722E0
1.207463900E1,-2.398462372E0,4.048032074E0,-6.505471802E-1,4.749989164E0
1.208466300E1,-2.818488922E0,4.931644592E0,-7.562274170E-1,5.730347118E0
1.209468800E1,-2.546654205E0,5.261408844E0,-7.303312683E-1,5.890777065E0
1.210471200E1,-2.064506836E0,4.993466034E0,-1.075064392E0,5.509324365E0
1.211473600E1,-1.300944672E0,4.415368195E0,-1.432221680E0,4.820704541E0
1.212476000E1,-4.087998962E-1,3.627406769E0,-1.744322662E0,4.045721045E0
1.213478500E1,3.224295044E-1,2.790796509E0,-2.019600220E0,3.459955345E0
1.214480900E1,6.637197876E-1,2.255659332E0,-2.313588867E0,3.298668887E0
1.215483300E1,7.235952759E-1,1.998194733E0,-2.619702301E0,3.373308829E0
1.216485700E1,6.935078430E-1,1.853445740E0,-2.857407990E0,3.475772527E0
1.217488200E1,5.164260864E-1,1.771715698E0,-2.917882233E0,3.452493178E0
1.218490600E1,1.935475159E-1,1.665436707E0,-2.786156158E0,3.251738951E0
1.219493000E1,-1.498384094E-1,1.492396545E0,-2.493365021E0,2.909736779E0
1.220495500E1,-3.867956543E-1,1.242266693E0,-2.025887146E0,2.407707653E0
1.221497900E1,-4.308041382E-1,8.963360596E-1,-1.366508331E0,1.690075607E0
1.222500300E1,-2.930905151E-1,5.761518860E-1,-7.364685059E-1,9.799178057E-1
1.223502700E1,1.287322998E-2,4.152365112E-1,-2.951861572E-1,5.096292257E-1
1.224505200E1,4.595443726E-1,3.727249146E-1,7.783813477E-3,5.917478179E-1
1.225507600E1,8.940907288E-1,3.655398560E-1,2.926414490E-1,1.009285210E0
1.226510000E1,1.199156342E0,3.824546814E-1,4.899311829E-1,1.350659128E0
1.227512400E1,1.432970123E0,3.914360046E-1,6.300398254E-1,1.613559947E0
1.228514900E1,1.685494995E0,3.646417236E-1,7.710466003E-1,1.889012923E0
1.229517300E1,1.847907257E0,3.586541748E-1,8.059240723E-1,2.047659068E0
1.230519700E1,1.989512787E0,3.433859253E-1,7.237449646E-1,2.144733502E0
1.231522200E1,2.186054077E0,2.833607483E-1,6.682104492E-1,2.303395525E0
1.232524600E1,2.279908905E0,3.155438232E-1,5.658233643E-1,2.370170584E0
1.233527000E1,2.302362213E0,3.908372498E-1,4.339476013E-1,2.375275992E0
1.234529400E1,2.309098206E0,4.415817261E-1,3.757186890E-1,2.380775814E0
1.235531900E1,2.317929840E0,4.716691589E-1,3.189866638E-1,2.386843738E0
1.236534300E1,2.299218750E0,4.828958130E-1,2.406994629E-1,2.361679796E0
1.237536700E1,2.285746765E0,4.559518433E-1,1.603166199E-1,2.336285894E0
1.238539200E1,2.330354004E0,4.152365112E-1,1.225950623E-1,2.370232202E0
1.239541600E1,2.373164978E0,3.586541748E-1,1.076261902E-1,2.402525385E0
1.240544000E1,2.399959259E0,2.348616028E-1,1.270857239E-1,2.414770217E0
1.241546400E1,2.437531128E0,7.619155884E-2,1.487905884E-1,2.443256391E0
1.242548900E1,2.508483582E0,-1.284329224E-1,6.331832886E-2,2.512567234E0
1.243551300E1,2.750530243E0,-5.192701721E-1,1.562750244E-1,2.803476415E0
1.244553700E1,3.143463135E0,-1.037941589E0,3.561094666E-1,3.329489026E0
1.245556100E1,3.746409302E0,-1.679806824E0,4.975653076E-1,4.135807643E0
1.246558600E1,4.890779572E0,-2.778671722E0,4.302053833E-1,5.641437585E0
1.247561000E1,6.669530640E0,-4.762496338E0,3.293151855E-2,8.195431337E0
1.248563400E1,9.365723877E0,-8.336015167E0,-4.317022705E-1,1.254560877E1
1.249565900E1,1.341181000E1,-1.435245392E1,-9.539662170E-1,1.966671382E1
1.250568300E1,1.741283981E1,-2.105222168E1,-6.592291260E-1,2.732832983E1
1.251570700E1,1.928260162E1,-2.244836838E1,1.215322723E0,2.961798402E1
1.252573425E1,2.098875366E1,-2.335039261E1,1.725910950E0,3.144435377E1
1.253575925E1,2.477393234E1,-2.703318420E1,1.963466949E0,3.672051163E1
1.254578325E1,2.893153656E1,-3.111848877E1,3.636687469E0,4.264527696E1
1.255580725E1,2.967893234E1,-3.181124817E1,5.697452087E0,4.387773348E1
1.256583125E1,2.909574509E1,-3.124317947E1,6.136189728E0,4.313179187E1
1.257585625E1,2.936473572E1,-3.191992218E1,6.207291870E0,4.381437673E1
1.258588025E1,2.949047424E1,-3.212364853E1,6.559210052E0,4.409807368E1
1.259590425E1,2.978042130E1,-3.111594406E1,5.910758514E0,4.347427439E1
1.260592925E1,2.993759445E1,-2.851809631E1,3.993395691E0,4.153900081E1
1.261595325E1,2.899695053E1,-2.436558151E1,1.245410156E0,3.789532622E1
1.262597725E1,2.679053879E1,-1.930280960E1,-2.520458679E0,3.311622169E1
1.263600125E1,2.347523300E1,-1.343067078E1,-7.610773315E0,2.809614480E1
1.264602625E1,1.936837326E1,-7.114704895E0,-1.187435715E1,2.380658031E1
1.265605025E1,1.421384216E1,-1.922302551E0,-1.375953690E1,1.987595059E1
1.266607425E1,8.613987122E0,1.096020813E0,-1.444121933E1,1.685084127E1
1.267609925E1,3.628604279E0,3.861669617E0,-1.357362350E1,1.457129082E1
1.268612325E1,-1.182540894E-1,6.419999542E0,-8.325536957E0,1.051403556E1
1.269614725E1,-1.351838837E0,6.983278198E0,-3.270399170E0,7.828738938E0
1.270617125E1,-1.057251434E0,6.887776794E0,-6.768923950E-1,7.001245109E0
1.271619625E1,2.730322266E-1,6.906188507E0,7.964936829E-1,6.957326245E0
1.272622025E1,2.471809845E0,7.052434387E0,1.359173584E0,7.595658466E0
1.273624425E1,4.371359711E0,6.221811676E0,2.692900085E-1,7.608695247E0
1.274626925E1,5.573360138E0,5.345833282E0,-1.220112762E0,7.818500615E0
1.275629325E1,6.465055847E0,4.716990967E0,-2.312690735E0,8.330395508E0
1.276631725E1,7.080126801E0,3.978875885E0,-3.401376801E0,8.805056102E0
1.277634125E1,6.995253296E0,3.011886749E0,-3.861220551E0,8.538972690E0
1.278636625E1,6.739435272E0,1.891766052E0,-3.120560760E0,7.663984998E0
1.279639025E1,6.428382111E0,8.852590942E-1,-1.700613556E0,6.708193996E0
1.280641425E1,6.034700775E0,3.266207886E-1,-8.181985474E-1,6.098667350E0
1.281643925E1,5.635031891E0,2.998265076E-1,-5.263055420E-1,5.667493085E0
1.282646325E1,5.269342346E0,3.210823059E-1,6.735992432E-3,5.279120001E0
1.283648725E1,4.769382019E0,1.631607056E-1,8.090675354E-1,4.840270296E0
1.284651125E1,4.200265503E0,3.248245239E-2,1.411714325E0,4.431277777E0
1.285653625E1,3.507356415E0,6.182144165E-2,1.689686279E0,3.893637198E0
1.286656025E1,2.768642578E0,2.103126526E-1,1.692829742E0,3.251966432E0
1.287658425E1,2.101030884E0,3.040177917E-1,1.622925110E0,2.672198253E0
1.288660825E1,1.554217987E0,2.570155334E-1,1.596280518E0,2.242713095E0
1.289663325E1,9.397457886E-1,2.302212524E-1,1.615889740E0,1.883407450E0
1.290665725E1,3.061134338E-1,2.923420715E-1,1.639241180E0,1.693009441E0
1.291668125E1,-2.511776733E-1,4.638853455E-1,1.686243439E0,1.766832412E0
1.292670625E1,-6.936575317E-1,6.480024719E-1,1.809137878E0,2.043048663E0
1.293673025E1,-9.617500305E-1,7.987390137E-1,2.037263489E0,2.390269787E0
1.294675425E1,-1.127156067E0,9.000782776E-1,2.202819214E0,2.633065551E0
1.295677825E1,-1.051413574E0,8.521778870E-1,2.272424469E0,2.644917886E0
1.296680325E1,-7.942483521E-1,7.192543030E-1,2.274071045E0,2.513872772E0
1.297682725E1,-3.718267822E-1,5.400769043E-1,2.226769409E0,2.321301407E0
1.298685125E1,9.984237671E-2,3.426374817E-1,2.092348938E0,2.122567554E0
1.299687625E1,5.421725464E-1,1.604663086E-1,1.905836792E0,1.987942249E0
1.300690025E1,9.134005737E-1,1.332229614E-2,1.698817291E0,1.928848952E0
1.301692425E1,1.166374512E0,-9.370513916E-2,1.417103119E0,1.837768050E0
1.302694825E1,1.476978607E0,-2.312690735E-1,1.176403656E0,1.902334553E0
1.303697325E1,1.760339355E0,-3.252735901E-1,1.009351044E0,2.055088096E0
1.304699725E1,2.029779053E0,-4.992118835E-1,7.873626709E-1,2.233641754E0
1.305702125E1,2.540816345E0,-9.319619751E-1,6.548881531E-1,2.784453145E0
1.306704625E1,3.251239014E0,-1.579066315E0,4.281097412E-1,3.639681786E0
1.307707025E1,4.534969482E0,-2.866988068E0,4.101470947E-2,5.365375196E0
1.308709425E1,6.863377533E0,-5.401816864E0,-4.225712585E-1,8.744377797E0
1.309711825E1,1.012329849E1,-9.025780792E0,-9.089099121E-1,1.359308679E1
1.310714325E1,1.405322617E1,-1.385294266E1,-9.816586304E-1,1.975755146E1
1.311716725E1,1.810021042E1,-2.006472519E1,-6.941065979E-1,2.703132624E1
1.312719125E1,2.176429092E1,-2.418251221E1,2.528242493E-1,3.253524514E1
1.313721525E1,2.438534042E1,-2.540591812E1,1.827699280E-1,3.521560603E1
1.314724025E1,2.709530502E1,-2.788416458E1,-7.933502197E-1,3.888845064E1
1.315726425E1,3.111444717E1,-3.251388702E1,-5.926176453E-1,4.500680913E1
1.316728825E1,3.368999130E1,-3.628319870E1,1.516346741E-1,4.951271569E1
1.317731325E1,3.309393082E1,-3.710034943E1,-4.162843323E-1,4.971737601E1
1.318733725E1,3.199057526E1,-3.653362793E1,2.784210205E-2,4.856030941E1
1.319736125E1,3.075339798E1,-3.547038895E1,1.218615875E0,4.696173979E1
1.320738525E1,2.888662994E1,-3.223157410E1,2.171983337E0,4.333623507E1
1.321741025E1,2.703542953E1,-2.769555679E1,2.853516083E0,3.880851543E1
1.322743425E1,2.580139572E1,-2.326342346E1,2.893632660E0,3.486075160E1
1.323745825E1,2.491074783E1,-1.899085831E1,1.970352631E0,3.138598965E1
1.324748325E1,2.305805054E1,-1.418315598E1,-2.299218750E-1,2.707191297E1
1.325750725E1,1.944471451E1,-8.371341705E0,-2.684667206E0,2.133972170E1
1.326753125E1,1.454465424E1,-2.533481598E0,-4.448599091E0,1.541932326E1
1.327755525E1,8.782835999E0,2.582878876E0,-5.150639191E0,1.050421608E1
1.328758025E1,3.553011475E0,6.260281677E0,-5.200335846E0,8.880231423E0
1.329760425E1,-2.779719543E-1,8.774453430E0,-4.603975983E0,9.912865189E0
1.330762825E1,-2.950664062E0,1.100002533E1,-3.154091034E0,1.181758291E1
1.331765325E1,-4.184697876E0,1.198856964E1,-1.408271484E0,1.277578674E1
1.332767725E1,-3.390748901E0,1.022718246E1,-9.222322083E-1,1.081401644E1
1.333770125E1,-1.499431915E0,7.238946533E0,-1.486109619E0,7.540501626E0
1.334772525E1,-1.917512512E-1,5.789959717E0,-1.832489319E0,6.076052927E0
1.335775025E1,7.075785828E-1,4.965174866E0,-2.552791443E0,5.627643650E0
1.336777425E1,1.834285583E0,3.822002106E0,-2.956651611E0,5.168567737E0
1.337779825E1,2.734064484E0,2.607727203E0,-2.842439117E0,4.728087341E0
1.338782325E1,3.361709290E0,1.676214294E0,-2.452200623E0,4.485986135E0
1.339784725E1,3.842359772E0,9.154962158E-1,-1.927691345E0,4.395208284E0
1.340787125E1,4.170327759E0,1.302291870E-1,-1.221609650E0,4.347519223E0
1.341789525E1,4.310137024E0,-6.089337158E-1,-4.565505981E-1,4.376816181E0
1.342792025E1,4.343966675E0,-1.089883575E0,6.271957397E-2,4.479043026E0
1.343794425E1,4.240980835E0,-1.255588989E0,4.233197021E-1,4.443154479E0
1.344796825E1,3.874842224E0,-1.240470428E0,8.009843445E-1,4.146654684E0
1.345799325E1,3.431613922E0,-1.273551636E0,1.168919220E0,3.842431525E0
1.346801725E1,2.961741028E0,-1.367556152E0,1.404678955E0,3.551794295E0
1.347804125E1,2.506238251E0,-1.467099152E0,1.582060089E0,3.307041611E0
1.348806525E1,2.103575592E0,-1.541494446E0,1.842967529E0,3.193393917E0
1.349809025E1,1.632505188E0,-1.529669037E0,2.063608704E0,3.043590221E0
1.350811425E1,1.129700775E0,-1.467997284E0,2.218686218E0,2.890295556E0
1.351813825E1,7.170089722E-1,-1.384470978E0,2.247276764E0,2.735162629E0
1.352816325E1,3.737727356E-1,-1.245559845E0,2.093845825E0,2.464815556E0
1.353818725E1,1.606159973E-1,-1.071022797E0,1.910028076E0,2.195699110E0
1.354821125E1,8.771759033E-2,-8.039781189E-1,1.660946045E0,1.847381107E0
1.355823525E1,1.257385254E-2,-4.102967834E-1,1.251397705E0,1.317003329E0
1.356826025E1,-6.496490479E-2,-5.239105225E-3,8.074209595E-1,8.100472164E-1
1.357828425E1,-1.842668152E-1,4.122427368E-1,3.342549133E-1,5.618048418E-1
1.358830825E1,-2.686912537E-1,7.137158203E-1,-1.390608215E-1,7.751923465E-1
1.359833325E1,-2.350112915E-1,8.719367981E-1,-5.322930908E-1,1.048255704E0
1.360835725E1,-1.187031555E-1,1.026116180E0,-7.735913086E-1,1.290522517E0
1.361838125E1,7.993377686E-2,1.105600891E0,-8.470884705E-1,1.395099142E0
1.362840525E1,4.005670166E-1,1.038390656E0,-7.283853149E-1,1.330133172E0
1.363843025E1,7.918533325E-1,9.830058289E-1,-5.252577209E-1,1.367197072E0
1.364845425E1,1.276096344E0,8.907975769E-1,-4.469705200E-1,1.619174125E0
1.365847825E1,1.760339355E0,5.754034424E-1,-5.019062805E-1,1.918800063E0
1.366850325E1,2.426454163E0,-2.544708252E-2,-2.320175171E-1,2.437654505E0
1.367852725E1,3.139122162E0,-7.198530579E-1,2.116598511E-1,3.227549576E0
1.368855125E1,4.189487915E0,-1.721869354E0,5.707630920E-1,4.565349228E0
1.369857525E1,5.857319641E0,-3.342998199E0,7.011419678E-1,6.780518446E0
1.370860025E1,9.168733521E0,-6.486910400E0,5.839356995E-1,1.124662891E1
1.371862425E1,1.357796448E1,-1.164428558E1,5.373825073E-1,1.789523082E1
1.372864825E1,1.841171265E1,-1.874237503E1,3.852987671E-1,2.627577286E1
1.373867325E1,2.256138336E1,-2.446332825E1,1.007105713E0,3.329391401E1
1.374869725E1,2.387086029E1,-2.418730225E1,2.774031372E0,3.409602339E1
1.375872125E1,2.599449417E1,-2.479578690E1,3.067570953E0,3.605488547E1
1.376874525E1,3.248664368E1,-2.935171280E1,4.713099060E0,4.403542170E1
1.377877025E1,3.868121201E1,-3.349913818E1,7.175628204E0,5.167124985E1
1.378879425E1,4.060800522E1,-3.402559341E1,7.442972260E0,5.349905542E1
1.379881825E1,4.001927948E1,-3.352398651E1,7.504943390E0,5.274205700E1
1.380884325E1,3.832794662E1,-3.198773117E1,9.032516785E0,5.073295573E1
1.381886725E1,3.514601349E1,-2.785317902E1,1.027747787E1,4.600726461E1
1.382889125E1,3.143178726E1,-2.236095016E1,9.842332764E0,3.981005975E1
1.383891525E1,2.770618469E1,-1.633283569E1,7.467820587E0,3.301760949E1
1.384894025E1,2.342867981E1,-9.604926453E0,3.766317902E0,2.559966407E1
1.385896425E1,1.808000244E1,-2.141297150E0,-5.566923523E-1,1.821487162E1
1.386898825E1,1.211775101E1,5.023553467E0,-4.581672363E0,1.389488037E1
1.387901325E1,7.379204865E0,1.152543274E1,-7.983647919E0,1.584382840E1
1.388903725E1,3.960464172E0,1.438014633E1,-1.013332764E1,1.803214391E1
1.389906125E1,1.576521606E0,1.339788895E1,-9.415121155E0,1.645093781E1
1.390908625E1,-6.526428223E-2,1.225426712E1,-8.217461700E0,1.475459247E1
1.391911025E1,4.879852295E-2,1.106738525E1,-7.644602966E0,1.345099818E1
1.392913425E1,1.145717468E0,8.500822449E0,-6.048023071E0,1.049548636E1
1.393915825E1,2.410736847E0,5.911656647E0,-4.162843323E0,7.621587826E0
1.394918325E1,3.320544891E0,4.230951691E0,-2.894830170E0,6.107946651E0
1.395920725E1,3.952979736E0,3.133883057E0,-1.187929688E0,5.182513748E0
1.396923125E1,4.963977356E0,2.451302490E0,6.586303711E-3,5.536244076E0
1.397925625E1,5.192701721E0,1.536105652E0,3.191363525E-1,5.424538667E0
1.398928025E1,5.268144836E0,4.860392761E-1,1.002016296E0,5.384572486E0
1.399930425E1,5.287155304E0,1.130149841E-1,1.600621490E0,5.525284857E0
1.400932825E1,5.277874603E0,-1.315763855E-1,1.678759003E0,5.539991377E0
1.401935325E1,5.153632965E0,-3.159928894E-1,1.372346191E0,5.342576000E0
1.402937725E1,4.743934937E0,-4.445755005E-1,1.035097504E0,4.875858171E0
1.403940125E1,4.096531219E0,-5.354365540E-1,8.833131409E-1,4.224748802E0
1.404942525E1,3.407963104E0,-6.155200195E-1,8.351133728E-1,3.562371648E0
1.405945025E1,2.701731720E0,-6.129753113E-1,8.725355530E-1,2.904550105E0
1.406947425E1,1.821861420E0,-4.028123474E-1,9.633966064E-1,2.099897579E0
1.407949825E1,1.010249176E0,-1.191522217E-1,9.678872681E-1,1.404139029E0
1.408952325E1,4.052073669E-1,2.389031982E-1,9.255253601E-1,1.038202745E0
1.409954725E1,-5.568420410E-2,5.945635986E-1,8.529263306E-1,1.041196393E0
1.410957125E1,-3.986210632E-1,8.776249695E-1,7.277865601E-1,1.207806945E0
1.411959625E1,-5.824388123E-1,1.058299255E0,5.599855042E-1,1.331471385E0
1.412962025E1,-6.746470642E-1,1.176553345E0,3.141966248E-1,1.392173105E0
1.413964425E1,-6.929090881E-1,1.219214630E0,9.610015869E-2,1.405646669E0
1.414966825E1,-5.923182678E-1,1.146465912E0,-4.894821167E-2,1.291363986E0
1.415969325E1,-4.513114929E-1,1.034049683E0,-1.411564636E-1,1.137042636E0
1.416971725E1,-2.778222656E-1,9.680369568E-1,-1.185534668E-1,1.014068876E0
1.417974125E1,1.058299255E-1,8.777746582E-1,-1.481918335E-2,8.842555807E-1
1.418976625E1,3.927832031E-1,7.161108398E-1,5.703140259E-2,8.187465789E-1
1.419979025E1,5.971083069E-1,4.019142151E-1,9.999206543E-2,7.266854750E-1
1.420981425E1,9.566606140E-1,3.218307495E-2,1.104702759E-1,9.635553760E-1
1.421983825E1,1.297052765E0,-2.203417969E-1,1.746867371E-1,1.327181916E0
1.422986325E1,1.558708649E0,-3.965254211E-1,2.203417969E-1,1.623377827E0
1.423988725E1,1.839375000E0,-5.984555054E-1,1.893562317E-1,1.943529049E0
1.424991125E1,2.213896179E0,-8.500822449E-1,-3.921844482E-2,2.371816646E0
1.425993625E1,2.797382812E0,-1.332978058E0,-4.337979126E-1,3.128955374E0
1.426996025E1,4.098477173E0,-2.465073853E0,-7.089257812E-1,4.834943640E0
1.427998425E1,6.498137054E0,-4.715793457E0,-1.116079102E0,8.106178241E0
1.429000825E1,1.078537170E1,-8.756191406E0,-1.749561768E0,1.400200333E1
1.430003325E1,1.762719406E1,-1.666709061E1,-2.669997711E0,2.440571178E1
1.431005725E1,2.572520416E1,-2.658321991E1,-4.189787292E-1,3.699498957E1
1.432008125E1,3.011991531E1,-2.901850571E1,4.616998901E0,4.207849392E1
1.433010625E1,3.180825439E1,-2.863605103E1,3.993545380E0,4.298530994E1
1.434013025E1,3.669843521E1,-3.223112503E1,2.712359619E0,4.891806887E1
1.435015425E1,4.164130646E1,-3.695455261E1,6.150260468E0,5.601306157E1
1.436017825E1,4.091756149E1,-3.736589722E1,6.240971832E0,5.576205558E1
1.437020325E1,3.707505203E1,-3.541335754E1,5.016069031E0,5.151530185E1
1.438022725E1,3.370271484E1,-3.275593369E1,6.974446564E0,4.751280969E1
1.439025125E1,3.103346558E1,-2.798565353E1,9.065298615E0,4.276040725E1
1.440027625E1,2.889381500E1,-2.152718399E1,9.538314972E0,3.727266624E1
1.441030025E1,2.708961685E1,-1.497920059E1,6.965764618E0,3.172925572E1
1.442032425E1,2.365830231E1,-7.602540436E0,2.131717072E0,2.494109273E1
1.443034925E1,1.824436066E1,3.632945251E-1,-2.459834747E0,1.841302435E1
1.444037325E1,1.250050507E1,7.171736298E0,-6.429130554E0,1.578068909E1
1.445039725E1,7.975115662E0,1.214544342E1,-9.191635895E0,1.719303452E1
1.446042125E1,4.760251007E0,1.424273209E1,-9.700727234E0,1.787790580E1
1.447044625E1,2.765948181E0,1.406370438E1,-8.700207825E0,1.676698740E1
1.448047025E1,1.727407837E0,1.273551636E1,-6.850504303E0,1.456388423E1
1.449049425E1,1.762135620E0,9.864486694E0,-4.990921326E0,1.119475392E1
1.450051925E1,2.031275940E0,6.861880646E0,-3.595074005E0,8.008498301E0
1.451054325E1,1.929337921E0,5.049000549E0,-2.337089996E0,5.888696037E0
1.452056725E1,1.824555817E0,4.023183746E0,-1.302291870E0,4.605537482E0
1.453059179E1,1.864223328E0,3.339854736E0,-3.785627747E-1,3.843600922E0
1.454061679E1,2.124831390E0,2.638712769E0,3.718267822E-1,3.408220748E0
1.455064079E1,2.736758881E0,1.680555267E0,9.078620911E-1,3.337413483E0
1.456066479E1,3.351231079E0,7.963439941E-1,1.322948914E0,3.689865489E0
1.457068979E1,3.878135376E0,1.564247131E-1,1.439257050E0,4.139548712E0
1.458071379E1,4.243824921E0,-3.561094666E-1,1.293160858E0,4.450744760E0
1.459073779E1,4.345762939E0,-6.209088135E-1,1.259780273E0,4.567081083E0
1.460076279E1,4.039499817E0,-5.975573730E-1,1.200952606E0,4.256397626E0
1.461078679E1,3.365750885E0,-5.385800171E-1,1.169068909E0,3.603480202E0
1.462081079E1,2.757565613E0,-5.608836365E-1,1.285676422E0,3.093820038E0
1.463083479E1,2.449206848E0,-6.719526672E-1,1.321152649E0,2.862792150E0
1.464085979E1,2.447560272E0,-7.860154724E-1,1.423390045E0,2.938436800E0
1.465088379E1,2.345921631E0,-8.147557068E-1,1.351988525E0,2.827551615E0
1.466090779E1,2.204166412E0,-8.517288208E-1,1.093027039E0,2.603555197E0
1.467093279E1,1.960473175E0,-8.137078857E-1,8.054750061E-1,2.270322792E0
1.468095679E1,1.535806274E0,-5.773493958E-1,6.111790466E-1,1.750877798E0
1.469098079E1,1.033899994E0,-2.877017212E-1,4.236190796E-1,1.153765402E0
1.470100479E1,6.689588928E-1,-8.622070312E-2,1.905537415E-1,7.008928151E-1
1.471102979E1,4.002676392E-1,6.212081909E-2,-7.035369873E-3,4.051205692E-1
1.472105379E1,1.282832336E-1,1.571731567E-1,-3.126997375E-1,3.727480585E-1
1.473107779E1,-1.130149841E-1,1.664538574E-1,-7.083270264E-1,7.363466912E-1
1.474110279E1,-3.299139404E-1,5.254074097E-2,-1.011147308E0,1.064904980E0
1.475112679E1,-6.212081909E-1,6.286926270E-3,-1.137185211E0,1.295812234E0
1.476115079E1,-8.702902222E-1,1.646575928E-2,-1.183888092E0,1.469444523E0
1.477117479E1,-1.018482056E0,1.975891113E-2,-1.016985168E0,1.439428687E0
1.478119979E1,-1.031654663E0,4.281097412E-2,-7.421566772E-1,1.271589815E0
1.479122379E1,-1.038240967E0,6.391708374E-2,-5.517526245E-1,1.177480640E0
1.480124779E1,-8.035290527E-1,8.741821289E-2,-2.748284912E-1,8.537163359E-1
1.481127279E1,-3.608995056E-1,5.598358154E-2,7.798782349E-2,3.734497492E-1
1.482129679E1,1.604663086E-1,-9.205856323E-2,3.629951477E-1,4.074183262E-1
1.483132079E1,8.366102600E-1,-3.873944092E-1,6.090834045E-1,1.104976809E0
1.484134579E1,1.753154297E0,-7.554789734E-1,7.429051208E-1,2.048464422E0
1.485136979E1,3.109783173E0,-1.296154633E0,6.239025879E-1,3.426371645E0
1.486139379E1,5.099745026E0,-2.395019531E0,2.749781799E-1,5.640844873E0
1.487141779E1,9.173523560E0,-5.358706512E0,-4.625381470E-2,1.062409570E1
1.488144279E1,1.618389542E1,-1.163425644E1,-2.793191528E-1,1.993370043E1
1.489146679E1,2.544857941E1,-2.225571899E1,-3.736230469E-1,3.380956693E1
1.490149079E1,3.277823730E1,-3.031660629E1,1.789828033E0,4.468459402E1
1.491151579E1,3.357622787E1,-2.862692001E1,4.550537109E0,4.435731074E1
1.492153979E1,3.310740280E1,-2.783806046E1,4.667444000E0,4.350681284E1
1.493156379E1,3.648872131E1,-3.088272903E1,6.245013428E0,4.820964560E1
1.494158879E1,3.891038544E1,-3.288047470E1,7.128625946E0,5.143890570E1
1.495161279E1,3.761602707E1,-3.352548340E1,6.474186859E0,5.080195493E1
1.496163679E1,3.522534851E1,-3.259441956E1,8.005203094E0,4.865495494E1
1.497166079E1,3.340303802E1,-2.915921310E1,1.047716263E1,4.556087790E1
1.498168579E1,3.163985458E1,-2.331985611E1,1.106199646E1,4.083214240E1
1.499170979E1,2.975362701E1,-1.633373383E1,8.434809723E0,3.497449351E1
1.500173379E1,2.680880081E1,-9.175768890E0,3.600612488E0,2.856345473E1
1.501175879E1,2.179422867E1,-1.624122620E0,-1.457519073E0,2.190320843E1
1.502178279E1,1.567764816E1,5.428012390E0,-6.233786774E0,1.772320705E1
1.503180679E1,9.431287537E0,1.054542068E1,-9.916278992E0,1.727679574E1
1.504183179E1,4.763244781E0,1.451995560E1,-1.123982666E1,1.896974736E1
1.505185579E1,1.926344147E0,1.550041672E1,-1.104627914E1,1.913096974E1
1.506187979E1,1.330583038E0,1.289268951E1,-9.585915985E0,1.612084611E1
1.507190379E1,2.213297424E0,9.554032288E0,-7.117399292E0,1.211757365E1
1.508192879E1,3.012186127E0,7.067103882E0,-4.905149689E0,9.114697801E0
1.509195279E1,3.215313721E0,5.710325317E0,-2.618804169E0,7.057208572E0
1.510197679E1,3.831582184E0,4.842579803E0,-1.404379578E0,6.332762682E0
1.511200179E1,3.862567749E0,4.315226440E0,-7.390132141E-1,5.838385854E0
1.512202579E1,4.311933289E0,3.634292450E0,-1.787283325E-1,5.642055841E0
1.513204979E1,4.726421356E0,3.019820251E0,8.247848511E-2,5.609382844E0
1.514207379E1,5.117557983E0,2.496059418E0,3.601510620E-1,5.705209998E0
1.515209879E1,5.383405151E0,2.060315552E0,5.057981873E-1,5.786344529E0
1.516212279E1,5.515430603E0,1.647174683E0,5.978567505E-1,5.787105655E0
1.517214679E1,5.522765350E0,1.293160858E0,7.003935242E-1,5.715221186E0
1.518217179E1,5.332211609E0,1.033450928E0,7.833210754E-1,5.487630943E0
1.519219579E1,4.988975372E0,7.949967957E-1,7.744894409E-1,5.110942092E0
1.520221979E1,4.734354858E0,4.248165894E-1,7.752378845E-1,4.816178863E0
1.521224479E1,4.631668396E0,-1.945953369E-2,9.151968384E-1,4.721262125E0
1.522226879E1,4.384831696E0,-1.686991882E-1,1.031055908E0,4.507580804E0
1.523229279E1,3.896996155E0,-1.362167358E-2,9.873468018E-1,4.020151525E0
1.524231679E1,3.443439331E0,1.420545959E-1,8.499325562E-1,3.549625232E0
1.525234179E1,3.009192352E0,2.073188782E-1,7.355703735E-1,3.104719553E0
1.526236579E1,2.561772766E0,2.519261169E-1,5.525010681E-1,2.632755952E0
1.527238979E1,2.167342987E0,3.088078308E-1,1.800755310E-1,2.196625844E0
1.528241479E1,1.895508270E0,3.365002441E-1,-9.939331055E-2,1.927709275E0
1.529243879E1,1.629661102E0,3.727249146E-1,-3.013233948E-1,1.698680358E0
1.530246279E1,1.397194519E0,3.767665100E-1,-5.078938293E-1,1.533643267E0
1.531248679E1,1.235979767E0,3.844006348E-1,-6.496490479E-1,1.448258857E0
1.532251179E1,1.142124939E0,3.740721130E-1,-7.679031372E-1,1.426202843E0
1.533253579E1,1.119671631E0,3.457809448E-1,-6.857240295E-1,1.357735787E0
1.534255979E1,1.242416382E0,2.868035889E-1,-4.757107544E-1,1.360939193E0
1.535258479E1,1.392554169E0,1.606159973E-1,-2.526745605E-1,1.424376722E0
1.536260879E1,1.517693939E0,-3.158432007E-2,-8.726852417E-2,1.520528940E0
1.537263279E1,1.690883789E0,-1.898052979E-1,-6.735992432E-3,1.701516798E0
1.538265779E1,1.903741150E0,-2.872526550E-1,1.472937012E-1,1.930916852E0
1.539268179E1,2.117346954E0,-4.162843323E-1,3.173400879E-1,2.181090439E0
1.540270579E1,2.461631012E0,-7.882608032E-1,3.486250305E-1,2.608164440E0
1.541272979E1,3.026556244E0,-1.389710083E0,3.966751099E-1,3.353906372E0
1.542275479E1,3.926634521E0,-2.278412018E0,4.334985352E-1,4.560432103E0
1.543277879E1,5.687722321E0,-3.929927673E0,1.841171265E-1,6.915809123E0
1.544280279E1,9.126670990E0,-7.283254395E0,-7.816744995E-1,1.170268913E1
1.545282779E1,1.373379044E1,-1.301812866E1,-2.212249603E0,1.905210545E1
1.546285179E1,1.873384277E1,-1.900867126E1,-1.535207520E0,2.673281337E1
1.547287579E1,2.028012726E1,-1.872037079E1,2.260149994E0,2.769195049E1
1.548290079E1,1.896511185E1,-1.655048309E1,4.087549896E0,2.550102002E1
1.549292479E1,2.016052597E1,-1.750414993E1,3.039130096E0,2.687151622E1
1.550294879E1,2.334051315E1,-1.924353287E1,2.596350861E0,3.036172178E1
1.551297279E1,2.651511154E1,-2.069940536E1,3.457959137E0,3.381529246E1
1.552299342E1,2.744482819E1,-2.197759735E1,3.542832642E0,3.533815279E1
1.553301742E1,2.527509018E1,-2.164034866E1,3.705244904E0,3.347930277E1
1.554304142E1,2.254910889E1,-1.945339645E1,4.087400208E0,3.006000309E1
1.555306642E1,2.107392654E1,-1.684327423E1,3.827390900E0,2.724803090E1
1.556309042E1,1.997790573E1,-1.433059937E1,3.221750336E0,2.479642052E1
1.557311442E1,1.850392090E1,-1.154968231E1,2.219135284E0,2.192520950E1
1.558313942E1,1.717767883E1,-8.956774292E0,6.566844177E-1,1.938369651E1
1.559316342E1,1.596460144E1,-6.811435547E0,-9.969268799E-1,1.738556920E1
1.560318742E1,1.453986420E1,-4.681814117E0,-2.358944550E0,1.545612027E1
1.561321142E1,1.280601974E1,-2.781515808E0,-3.345093842E0,1.352481514E1
1.562323642E1,1.112037506E1,-1.346300354E0,-4.120481415E0,1.193539414E1
1.563326042E1,9.533973999E0,-4.385879517E-1,-4.890330505E0,1.072400821E1
1.564328442E1,7.815397797E0,4.505630493E-2,-5.335205383E0,9.462921815E0
1.565330942E1,6.385571136E0,2.740800476E-1,-5.102738800E0,8.178543995E0
1.566333342E1,5.618266754E0,4.049079895E-1,-4.569697266E0,7.253344394E0
1.567335742E1,5.119803314E0,5.122348022E-1,-4.317022705E0,6.716506198E0
1.568338142E1,4.647834778E0,4.791535950E-1,-4.007765808E0,6.155821884E0
1.569340642E1,4.123774567E0,3.342549133E-1,-3.294798431E0,5.288945049E0
1.570343042E1,3.547173615E0,1.972897339E-1,-2.377955017E0,4.275047831E0
1.571345442E1,2.980003052E0,7.155120850E-2,-1.583407288E0,3.375309823E0
1.572347942E1,2.333198090E0,6.197113037E-2,-9.601034546E-1,2.523777405E0
1.573350342E1,1.815724182E0,1.746867371E-1,-1.122665405E-2,1.824142483E0
1.574352742E1,1.817071381E0,1.788780212E-1,2.188449097E-1,1.838923284E0
1.575355242E1,1.481469269E0,1.196012878E-1,9.086105347E-2,1.489063932E0
1.576357642E1,1.492396545E0,-1.999841309E-1,1.728904724E-1,1.515629314E0
1.577360042E1,1.558409271E0,-4.927752686E-1,3.044668579E-1,1.662578416E0
1.578362442E1,1.786534882E0,-9.440867615E-1,3.297642517E-1,2.047376653E0
1.579364942E1,2.224075012E0,-1.561552734E0,1.155596924E-1,2.719983574E0
1.580367342E1,2.751877441E0,-2.185904388E0,-1.639091492E-1,3.518220240E0
1.581369742E1,3.355871429E0,-2.723436584E0,-3.635939026E-1,4.337185770E0
1.582372242E1,4.226311340E0,-3.473227386E0,-6.057902527E-1,5.503816662E0
1.583374642E1,5.507796478E0,-4.642146606E0,-9.068142700E-1,7.260004083E0
1.584377042E1,7.283703461E0,-6.285728760E0,-1.285826111E0,9.706496326E0
1.585379542E1,9.572144623E0,-8.423732758E0,-1.842817841E0,1.288336927E1
1.586381942E1,1.184995789E1,-1.062924637E1,-2.116149445E0,1.605865713E1
1.587384342E1,1.379186966E1,-1.197165482E1,-1.528621216E0,1.832683471E1
1.588386742E1,1.491947479E1,-1.237596405E1,-7.774832153E-1,1.939999212E1
1.589389242E1,1.532168839E1,-1.215951416E1,-6.643185425E-1,1.957164374E1
1.590391642E1,1.550191360E1,-1.152318741E1,-1.058748322E0,1.934461479E1
1.591394042E1,1.530237854E1,-1.025128235E1,-1.109941864E0,1.845219634E1
1.592396542E1,1.501168304E1,-8.829389191E0,-2.567161560E-1,1.741765324E1
1.593398942E1,1.491917542E1,-7.710466003E0,7.725434875E-1,1.681160030E1
1.594401342E1,1.458701614E1,-6.722071381E0,1.169068909E0,1.610385065E1
1.595403842E1,1.388946671E1,-6.009553070E0,9.485774231E-1,1.516350265E1
1.596406242E1,1.266860550E1,-5.392685852E0,9.503736877E-1,1.380137081E1
1.597408642E1,1.118683685E1,-4.608316956E0,1.624421997E0,1.220740147E1
1.598411042E1,9.798174591E0,-4.006717987E0,2.309098206E0,1.083466422E1
1.599413542E1,8.595725098E0,-3.766317902E0,2.783461761E0,9.788733313E0
1.600415942E1,7.749684448E0,-3.725602570E0,3.084186401E0,9.135093284E0
1.601418342E1,7.300169220E0,-3.819756775E0,3.081342316E0,8.796458545E0
1.602420842E1,7.002588043E0,-3.864364014E0,2.797981567E0,8.473384766E0
1.603423242E1,6.675368500E0,-3.685186615E0,2.280956726E0,7.958888652E0
1.604425642E1,6.357579346E0,-3.361260223E0,1.680555267E0,7.385198131E0
1.605428142E1,6.116281128E0,-3.042722626E0,1.067130890E0,6.914175594E0
1.606430542E1,5.921985168E0,-2.899171143E0,4.129911804E-1,6.606486461E0
1.607432942E1,5.688021698E0,-2.939138031E0,-2.330653381E-1,6.406749773E0
1.608435342E1,5.563480682E0,-3.071762238E0,-7.423063660E-1,6.398363798E0
1.609437842E1,5.653293915E0,-3.263363800E0,-1.045725403E0,6.610810616E0
1.610440242E1,5.847440186E0,-3.647315369E0,-1.589394836E0,7.072597972E0
1.611442642E1,6.229595490E0,-4.217330017E0,-2.035616913E0,7.793424706E0
1.612445142E1,6.797664185E0,-4.883744202E0,-1.992207184E0,8.603957535E0
1.613447542E1,7.706424408E0,-5.826184387E0,-1.767823792E0,9.821334055E0
1.614449942E1,8.746761017E0,-6.948251038E0,-1.907932434E0,1.133244135E1
1.615452442E1,9.931547241E0,-8.024812317E0,-2.284848633E0,1.297126735E1
1.616454842E1,1.097772171E1,-8.569828949E0,-2.423310699E0,1.413593919E1
1.617457242E1,1.170416107E1,-8.571924591E0,-2.216889954E0,1.467582634E1
1.618459642E1,1.196581696E1,-8.421487427E0,-2.160307617E0,1.479084700E1
1.619462142E1,1.177481415E1,-8.096213837E0,-2.153421936E0,1.445102601E1
1.620464542E1,1.131706604E1,-7.666607208E0,-2.094743958E0,1.382898413E1
1.621466942E1,1.088611221E1,-7.128326569E0,-1.979184265E0,1.316197740E1
1.622469442E1,1.061322968E1,-6.551875305E0,-1.725162506E0,1.259142168E1
1.623471842E1,1.041668839E1,-6.058201904E0,-1.413510590E0,1.213289823E1
1.624474242E1,1.021056702E1,-5.693709869E0,-1.210682373E0,1.175328731E1
1.625476742E1,9.884844360E0,-5.413791962E0,-1.183738403E0,1.133227815E1
1.626479142E1,9.426347809E0,-5.186714172E0,-1.270557861E0,1.083385223E1
1.627481542E1,9.031169586E0,-4.896018677E0,-1.136586456E0,1.033561086E1
1.628484042E1,8.739126892E0,-4.514462128E0,-9.008267212E-1,9.877458981E0
1.629486442E1,8.502618713E0,-4.039948883E0,-8.414002991E-1,9.451119850E0
1.630488842E1,8.347092133E0,-3.569327545E0,-9.752220154E-1,9.130449287E0
1.631491242E1,8.072263641E0,-3.174448700E0,-1.296454010E0,8.770368170E0
1.632493742E1,7.689210205E0,-2.787952423E0,-1.513203278E0,8.317837246E0
1.633496142E1,7.218139801E0,-2.400707703E0,-1.682201843E0,7.790683070E0
1.634498542E1,6.735842743E0,-2.066153412E0,-2.012864227E0,7.327495464E0
1.635501042E1,6.311026154E0,-1.835183716E0,-2.417622528E0,7.002988581E0
1.636503442E1,5.990093536E0,-1.723815308E0,-2.744692383E0,6.810733886E0
1.637505842E1,5.749094696E0,-1.654659119E0,-2.940036163E0,6.665868230E0
1.638508342E1,5.624254303E0,-1.635948029E0,-2.901566162E0,6.536638938E0
1.639510742E1,5.625751190E0,-1.740730133E0,-2.702779541E0,6.479524296E0
1.640513142E1,5.757028198E0,-1.979333954E0,-2.622696075E0,6.628700573E0
1.641515542E1,6.058351593E0,-2.318378906E0,-2.672243042E0,7.015653045E0
1.642518042E1,6.493796082E0,-2.620151367E0,-2.492317200E0,7.432780486E0
1.643520442E1,6.941814423E0,-2.991978149E0,-2.051184540E0,7.832501436E0
1.644522842E1,7.426356812E0,-3.588338013E0,-1.634600830E0,8.408261714E0
1.645525342E1,8.077353058E0,-4.365821228E0,-1.368753662E0,9.283184475E0
1.646527742E1,8.903634796E0,-5.271138611E0,-1.202599182E0,1.041661460E1
1.647530142E1,9.729766846E0,-6.167774048E0,-1.033750305E0,1.156626298E1
1.648532642E1,1.059107574E1,-7.061715088E0,-8.990304565E-1,1.276115046E1
1.649535042E1,1.154698792E1,-7.908653870E0,-9.755213928E-1,1.402966065E1
1.650537442E1,1.253882538E1,-8.491242371E0,-1.156045990E0,1.518748765E1
1.651539842E1,1.339145233E1,-8.753946075E0,-1.269510040E0,1.604911908E1
1.652542400E1,1.396790359E1,-8.799301758E0,-1.380429382E0,1.656609874E1
1.653544800E1,1.415995422E1,-8.534203033E0,-1.612297211E0,1.661133430E1
1.654547200E1,1.407029068E1,-7.957452393E0,-1.883832550E0,1.627399624E1
1.655549700E1,1.362706238E1,-7.132068787E0,-2.082469482E0,1.552095079E1
1.656552100E1,1.284419037E1,-6.107299805E0,-1.955982513E0,1.435612081E1
1.657554500E1,1.187166275E1,-5.048252106E0,-1.606758728E0,1.300011151E1
1.658557000E1,1.093146790E1,-4.155358887E0,-1.317111053E0,1.176855044E1
1.659559400E1,1.004590942E1,-3.614683228E0,-1.233435059E0,1.074744588E1
1.660561800E1,9.249415741E0,-3.303929443E0,-1.075663147E0,9.880520863E0
1.661564200E1,8.639733582E0,-3.187022552E0,-7.394622803E-1,9.238447574E0
1.662566700E1,8.254285126E0,-3.321742401E0,-4.677772522E-1,8.909882776E0
1.663569100E1,8.002658386E0,-3.700754242E0,-4.361929321E-1,8.827705675E0
1.664571500E1,7.901618500E0,-4.221221924E0,-3.680845642E-1,8.966034558E0
1.665574000E1,7.869884491E0,-4.689298553E0,-2.294728088E-1,9.163910770E0
1.666576400E1,7.880213013E0,-5.044360199E0,-1.672023010E-1,9.357952957E0
1.667578800E1,7.918233948E0,-5.395080872E0,-1.832189941E-1,9.583261223E0
1.668581300E1,8.074958038E0,-5.828579407E0,-2.748284912E-1,9.962570749E0
1.669583700E1,8.390352173E0,-6.347250824E0,-5.075944519E-1,1.053296040E1
1.670586100E1,8.713979187E0,-6.746171265E0,-7.562274170E-1,1.104609161E1
1.671588600E1,8.865314484E0,-6.876550140E0,-7.686515808E-1,1.124595785E1
