"Time (s)","Acceleration x (m/s^2)","Acceleration y (m/s^2)","Acceleration z (m/s^2)","Absolute acceleration (m/s^2)"
4.342249995E-3,-3.876638489E0,4.408482513E0,8.393645325E0,1.024286707E1
1.436625000E-2,-3.920646973E0,4.262985077E0,8.015980682E0,9.889411547E0
2.439025000E-2,-3.879183197E0,4.257296906E0,8.056696014E0,9.903685672E0
3.441425000E-2,-3.738326111E0,4.279899902E0,8.155041504E0,9.939684463E0
4.443825000E-2,-3.597319336E0,4.306095428E0,8.049510956E0,9.812124687E0
5.446224999E-2,-3.483705597E0,4.252656555E0,7.977810059E0,9.688485217E0
6.448725000E-2,-3.436853027E0,4.218976593E0,7.948171692E0,9.632505150E0
7.451125000E-2,-3.465742950E0,4.191433868E0,7.930209045E0,9.616013081E0
8.453525000E-2,-3.542533264E0,4.146527252E0,7.989336090E0,9.673299403E0
9.455925000E-2,-3.635190582E0,4.206851807E0,8.101153564E0,9.825522977E0
1.045832500E-1,-3.619173889E0,4.255051575E0,8.216862946E0,9.935830122E0
1.146082500E-1,-3.600163422E0,4.214485931E0,8.453371124E0,1.010853855E1
1.246322500E-1,-3.596870270E0,4.196373596E0,8.663983154E0,1.027675198E1
1.346562500E-1,-3.532354431E0,4.232897644E0,8.747359772E0,1.033978981E1
1.446802500E-1,-3.452121277E0,4.320465546E0,8.850944366E0,1.043660769E1
1.547042500E-1,-3.286715240E0,4.430636444E0,8.886121216E0,1.045926320E1
1.647282500E-1,-3.113824768E0,4.410578156E0,8.754095764E0,1.028510073E1
1.747532500E-1,-2.987038422E0,4.364174652E0,8.694669342E0,1.017672314E1
1.847772500E-1,-2.942580872E0,4.340823212E0,8.604556732E0,1.007670208E1
1.948012500E-1,-2.942131805E0,4.411925354E0,8.417146454E0,9.948345557E0
2.048252500E-1,-2.930605774E0,4.527485046E0,8.313412170E0,9.909560685E0
2.148492500E-1,-2.951562195E0,4.563410339E0,8.315507812E0,9.933987291E0
2.248742500E-1,-2.871478729E0,4.650080109E0,8.263865204E0,9.907578070E0
2.348982500E-1,-2.779120789E0,4.688999176E0,8.175399170E0,9.825852493E0
2.449222500E-1,-2.631527710E0,4.581822052E0,8.168513489E0,9.728445098E0
2.549462500E-1,-2.459385681E0,4.424349518E0,8.117918701E0,9.566820298E0
2.649702500E-1,-2.348166962E0,4.325854340E0,8.095914459E0,9.474741937E0
2.749942500E-1,-2.318528595E0,4.281546478E0,8.222102051E0,9.555635888E0
2.850192500E-1,-2.231559448E0,4.257596283E0,8.397986298E0,9.676422765E0
2.950432500E-1,-2.084116058E0,4.274810486E0,8.413553925E0,9.664648678E0
3.050672500E-1,-1.961820374E0,4.239034882E0,8.353678436E0,9.570898564E0
3.150912500E-1,-1.883533173E0,4.184248810E0,8.363557892E0,9.539640241E0
3.251152500E-1,-1.864522705E0,4.128414917E0,8.433013458E0,9.572667895E0
3.351402500E-1,-1.867666168E0,4.063599701E0,8.653355255E0,9.740717459E0
3.451642500E-1,-1.799857178E0,3.943549347E0,8.883576508E0,9.884786233E0
3.551882500E-1,-1.593735809E0,3.719615021E0,8.858129425E0,9.738685057E0
3.652122500E-1,-1.439257050E0,3.569177856E0,8.728049927E0,9.538833626E0
3.752362500E-1,-1.440903625E0,3.642824707E0,8.650960236E0,9.496604030E0
3.852602500E-1,-1.578617249E0,3.841910706E0,8.598120117E0,9.548820861E0
3.952842083E-1,-1.749262390E0,4.101321259E0,8.578660583E0,9.668204196E0
4.053082083E-1,-1.824855194E0,4.230352936E0,8.439150696E0,9.614845132E0
4.153322083E-1,-1.922302551E0,4.120481415E0,8.266260223E0,9.434228759E0
4.253562083E-1,-2.073188782E0,3.953279114E0,8.112829285E0,9.259834042E0
4.353802083E-1,-2.198478241E0,3.893403625E0,7.970625000E0,9.139078797E0
4.454052083E-1,-2.364632721E0,3.996239777E0,7.755821686E0,9.039590161E0
4.554292083E-1,-2.608924713E0,4.339326324E0,7.251969452E0,8.844619949E0
4.654532083E-1,-2.307002563E0,4.293671265E0,8.422385559E0,9.731107453E0
4.754772083E-1,-2.155068512E0,3.857777710E0,8.469986572E0,9.553399483E0
4.855012083E-1,-2.217788086E0,3.526516571E0,8.236771545E0,9.230347156E0
4.955252083E-1,-2.300416260E0,3.480412445E0,8.768765259E0,9.710634888E0
5.055502083E-1,-2.529889069E0,3.507955170E0,9.150321808E0,1.012099192E1
5.155742083E-1,-2.726130981E0,3.492387543E0,9.087751923E0,1.011018278E1
5.255982083E-1,-2.664159851E0,3.475921783E0,9.094936981E0,1.009443701E1
5.356222083E-1,-2.595752106E0,3.385060730E0,9.224118347E0,1.016272229E1
5.456462083E-1,-2.576292572E0,3.224594421E0,9.259744263E0,1.013795622E1
5.556712083E-1,-2.571053467E0,3.052901459E0,9.395811310E0,1.020841777E1
5.656952083E-1,-2.525248718E0,2.988086243E0,9.611512756E0,1.037722111E1
5.757192083E-1,-2.411934357E0,2.970872040E0,9.755962372E0,1.047961401E1
5.857432083E-1,-2.233355713E0,2.954555969E0,9.937385101E0,1.060513561E1
5.957672083E-1,-1.898801422E0,2.909349976E0,1.021939865E1,1.079378863E1
6.057922083E-1,-1.498084717E0,2.810854797E0,1.048569489E1,1.095878459E1
6.158162083E-1,-1.049018555E0,2.649939423E0,1.069046906E1,1.106384867E1
6.258402083E-1,-6.239025879E-1,2.478695526E0,1.093356354E1,1.122835685E1
6.358642083E-1,-2.445913696E-1,2.344125366E0,1.111887817E1,1.136592277E1
6.458882083E-1,7.873626709E-2,2.332449646E0,1.100391724E1,1.124867616E1
6.559122083E-1,2.101629639E-1,2.302062836E0,1.112741043E1,1.136498679E1
6.659372083E-1,2.665956116E-1,2.102677460E0,1.128907425E1,1.148631895E1
6.759612083E-1,3.284170532E-1,1.783690796E0,1.096305222E1,1.111206212E1
6.859852083E-1,3.947291565E-1,1.458117828E0,1.064256866E1,1.074924121E1
6.960092083E-1,4.927752686E-1,1.144669647E0,1.038929535E1,1.046377341E1
7.060332083E-1,4.598437500E-1,1.015488281E0,1.012524445E1,1.018642468E1
7.160572083E-1,4.035607910E-1,1.118174744E0,9.720635834E0,9.793055554E0
7.260822083E-1,4.673281860E-1,1.147513733E0,9.416468353E0,9.497634424E0
7.361062083E-1,3.861968994E-1,1.011147308E0,9.233399048E0,9.296624382E0
7.461302083E-1,2.186952209E-1,9.286688232E-1,9.367370453E0,9.415831487E0
7.561542083E-1,1.697470093E-1,1.025068359E0,9.562863922E0,9.619144743E0
7.661782083E-1,2.206411743E-1,1.166823578E0,9.494007111E0,9.567984678E0
7.762032083E-1,2.142045593E-1,1.263223114E0,9.588460693E0,9.673685683E0
7.862272083E-1,4.999603271E-2,1.318308563E0,9.724677429E0,9.813755050E0
7.962512083E-1,1.152603149E-2,1.349743195E0,9.819430389E0,9.911768395E0
8.062752083E-1,1.161584473E-1,1.461860046E0,9.655670929E0,9.766396913E0
8.162992083E-1,3.073109436E-1,1.621278534E0,9.356293488E0,9.500695339E0
8.263242083E-1,5.816903687E-1,1.792672119E0,9.097781067E0,9.290944912E0
8.363482083E-1,7.464976501E-1,1.936972046E0,8.881630554E0,9.120991215E0
8.463722083E-1,7.267387390E-1,2.070045319E0,8.684041443E0,8.956886323E0
8.563962083E-1,6.429130554E-1,2.232457581E0,8.664132843E0,8.970195202E0
8.664202083E-1,6.081852722E-1,2.280807037E0,8.589288483E0,8.907740831E0
8.764442083E-1,5.324427795E-1,2.279010773E0,8.616382141E0,8.928573605E0
8.864692083E-1,4.068539429E-1,2.298769684E0,8.847202148E0,9.150019565E0
8.964932083E-1,2.703378296E-1,2.353256378E0,9.015302582E0,9.321297054E0
9.065172083E-1,1.556762695E-1,2.448159027E0,8.957822113E0,9.287642044E0
9.165412083E-1,5.568420410E-2,2.467917938E0,8.994645538E0,9.327237964E0
9.265652083E-1,4.984634399E-2,2.523901520E0,9.398356018E0,9.731477759E0
9.365902083E-1,6.077362061E-2,2.545007629E0,9.541907501E0,9.875664840E0
9.466142083E-1,9.864486694E-2,2.520009613E0,9.322164459E0,9.657273397E0
9.566382083E-1,1.811233521E-1,2.491269379E0,9.228758698E0,9.560816695E0
9.666622083E-1,2.891986084E-1,2.507136383E0,9.039103088E0,9.384815039E0
9.766862083E-1,2.067201233E-1,2.562221832E0,8.868308258E0,9.233342043E0
9.867102083E-1,1.651066589E-1,2.649939423E0,9.014554138E0,9.397426534E0
9.967352083E-1,1.597178650E-1,2.723586273E0,9.346563721E0,9.736615704E0
1.006759208E0,1.658551025E-1,2.845881958E0,9.408235474E0,9.830638167E0
1.016783208E0,2.240840149E-1,3.046614532E0,9.340875549E0,9.827717425E0
1.026807208E0,2.023791504E-1,3.229234772E0,9.320667572E0,9.866294062E0
1.036831208E0,1.398092651E-1,3.275039520E0,9.432485046E0,9.985850221E0
1.046856208E0,4.909790039E-2,3.220103760E0,9.657167816E0,1.017999848E1
1.056880208E0,-2.694396973E-2,3.254532166E0,9.865684204E0,1.038866837E1
1.066904208E0,-1.445993042E-1,3.292553101E0,9.807155914E0,1.034611628E1
1.076928208E0,-1.902543640E-1,3.250340881E0,9.719438324E0,1.025028750E1
1.086952208E0,-2.439926147E-1,3.139720917E0,9.697583771E0,1.019610273E1
1.096976208E0,-2.754272461E-1,2.966980133E0,9.800270233E0,1.024324792E1
1.107001208E0,-2.995271301E-1,2.906954956E0,1.006447083E1,1.048015633E1
1.117025208E0,-2.782713318E-1,2.893782349E0,1.024050476E1,1.064515613E1
1.127049208E0,-3.567082214E-1,2.745291138E0,1.032403107E1,1.068875492E1
1.137073208E0,-4.087998962E-1,2.614912262E0,1.041159897E1,1.074273134E1
1.147097208E0,-5.571414185E-1,2.702031097E0,1.055664734E1,1.091119524E1
1.157122208E0,-4.894821167E-1,3.105442200E0,1.044797333E1,1.091070624E1
1.167146208E0,-2.005828857E-1,3.088677063E0,9.891280975E0,1.036424618E1
1.177170208E0,1.023870850E-1,2.595452728E0,9.581425323E0,9.927263934E0
1.187194208E0,1.691482544E-1,1.890418854E0,9.282197571E0,9.474253866E0
1.197218208E0,1.930984497E-2,1.586850128E0,9.277257843E0,9.412012499E0
1.207243208E0,-2.571652222E-1,1.944306793E0,9.716594238E0,9.912550956E0
1.217267208E0,-6.319857788E-1,2.840193787E0,1.059391983E1,1.098622975E1
1.227291208E0,-6.819818115E-1,3.085533600E0,1.143502075E1,1.186361313E1
1.237315208E0,-7.021897888E-1,2.572849731E0,1.157902130E1,1.188218669E1
1.247339208E0,-3.362008667E-1,2.021695862E0,1.177511353E1,1.195213720E1
1.257363208E0,1.288819885E-1,1.727856903E0,1.174113419E1,1.186829103E1
1.267388208E0,4.947212219E-1,1.520388336E0,1.115076187E1,1.126480449E1
1.277412208E0,5.839356995E-1,1.320104828E0,1.056922119E1,1.066733773E1
1.287436208E0,7.247927856E-1,8.008346558E-1,1.068987030E1,1.074430025E1
1.297460208E0,9.229806519E-1,6.746470642E-1,1.117935242E1,1.123765823E1
1.307484208E0,8.845106506E-1,9.852511597E-1,1.107187592E1,1.115076299E1
1.317509208E0,4.562512207E-1,1.469793549E0,1.069825287E1,1.080837974E1
1.327533208E0,1.272354126E-1,1.934427338E0,1.052506302E1,1.070210958E1
1.337557208E0,3.981719971E-2,2.200573883E0,1.028825546E1,1.052104136E1
1.347581208E0,-2.185455322E-2,2.255359955E0,1.007629623E1,1.032564148E1
1.357605208E0,-1.646575928E-2,2.240989838E0,9.997709656E0,1.024580426E1
1.367630208E0,-2.008822632E-1,1.999990997E0,9.743687897E0,9.948857799E0
1.377654208E0,-7.384144592E-1,1.763482819E0,9.121431885E0,9.319637718E0
1.387678208E0,-8.538244629E-1,1.373543701E0,9.017098846E0,9.160988490E0
1.397702208E0,-9.955796814E-1,9.921368408E-1,9.167086945E0,9.274211420E0
1.407726208E0,-1.424288177E0,1.137634277E0,9.071286163E0,9.252623478E0
1.417750208E0,-1.585353241E0,1.510508881E0,9.278305664E0,9.533201874E0
1.427775208E0,-1.517394562E0,1.685195618E0,9.641151123E0,9.904249871E0
1.437799208E0,-1.368603973E0,1.668879547E0,9.517957306E0,9.759597689E0
1.447823208E0,-1.152004395E0,1.569635925E0,9.190438385E0,9.394414765E0
1.457847208E0,-1.027164001E0,1.691033478E0,8.863518219E0,9.081663687E0
1.467871208E0,-9.386979675E-1,1.898951111E0,8.314759369E0,8.580349210E0
1.477896208E0,-1.047821045E0,1.844614105E0,8.064180450E0,8.338557218E0
1.487920208E0,-1.272803192E0,1.858235779E0,8.084388428E0,8.392282432E0
1.497944208E0,-1.452729034E0,1.990859985E0,8.107739868E0,8.474042182E0
1.507968208E0,-1.581910400E0,2.068249054E0,7.934550018E0,8.350878915E0
1.517992208E0,-1.623673553E0,2.031425629E0,7.668403473E0,8.097371037E0
1.528017208E0,-1.575324097E0,1.951042786E0,7.626790009E0,8.028458121E0
1.538041208E0,-1.478774872E0,1.991608429E0,7.678582306E0,8.069318774E0
1.548065208E0,-1.430425415E0,1.961670685E0,7.779622192E0,8.149649698E0
1.558089208E0,-1.529669037E0,2.049088898E0,7.899672546E0,8.303221002E0
1.568113208E0,-1.517993317E0,2.189646606E0,7.954907684E0,8.389243842E0
1.578138208E0,-1.477876740E0,2.247276764E0,7.936346283E0,8.379735368E0
1.588162208E0,-1.510957947E0,2.258503418E0,7.890691223E0,8.345468206E0
1.598186208E0,-1.563947754E0,2.279609528E0,7.981851654E0,8.447041376E0
1.608210208E0,-1.609004059E0,2.383792877E0,8.059839478E0,8.557591656E0
1.618234208E0,-1.758243713E0,2.469564514E0,8.123157806E0,8.670401524E0
1.628258208E0,-1.890269165E0,2.548899536E0,8.156538391E0,8.752092600E0
1.638283208E0,-2.015858002E0,2.597248993E0,8.182883606E0,8.818671664E0
1.648307208E0,-2.111359406E0,2.639910278E0,8.300688629E0,8.962611033E0
1.658331208E0,-2.181413727E0,2.661615143E0,8.451125793E0,9.124926750E0
1.668355208E0,-2.145638123E0,2.697241058E0,8.646319885E0,9.307938539E0
1.678379208E0,-2.023791504E0,2.733316040E0,8.864416351E0,9.494452374E0
1.688404208E0,-1.875300293E0,2.723586273E0,9.180109863E0,9.757514565E0
1.698428208E0,-1.763333130E0,2.749632111E0,9.433083801E0,9.982629437E0
1.708452208E0,-1.745819550E0,2.806214447E0,9.807155914E0,1.034905950E1
1.718476208E0,-1.758243713E0,2.959944763E0,1.008393036E1,1.065543737E1
1.728500208E0,-1.708247681E0,3.095113678E0,1.012210098E1,1.072169609E1
1.738525208E0,-1.614243164E0,3.102897491E0,1.017015106E1,1.075480016E1
1.748549208E0,-1.518442383E0,3.045267334E0,1.027568161E1,1.082446086E1
1.758573208E0,-1.473685455E0,3.111429749E0,1.019155655E1,1.075734952E1
1.768597208E0,-1.506317596E0,3.282074890E0,1.006357269E1,1.069188962E1
1.778621208E0,-1.569037170E0,3.428919525E0,1.000773880E1,1.069458754E1
1.788646208E0,-1.558109894E0,3.508104858E0,9.898615723E0,1.061683095E1
1.798670208E0,-1.510508881E0,3.457210693E0,9.881251831E0,1.057700717E1
1.808694208E0,-1.419198761E0,3.428320770E0,9.984237671E0,1.065140884E1
1.818718208E0,-1.408720551E0,3.539090424E0,1.007435028E1,1.077043120E1
1.828742208E0,-1.422940979E0,3.530558167E0,1.021655457E1,1.090264139E1
1.838767208E0,-1.464255066E0,3.401676178E0,1.035950729E1,1.100158330E1
1.848791208E0,-1.460662537E0,3.347189484E0,1.041384430E1,1.103564070E1
1.858815208E0,-1.346599731E0,3.276386719E0,1.041728714E1,1.100308648E1
1.868839208E0,-1.196911011E0,3.177292786E0,1.038764877E1,1.092845060E1
1.878863208E0,-1.008602600E0,3.089126129E0,1.032058823E1,1.082009800E1
1.888887208E0,-8.295748901E-1,3.067720642E0,1.021550674E1,1.069839626E1
1.898912208E0,-7.237449646E-1,3.126697998E0,1.001642075E1,1.051801938E1
1.908936208E0,-6.408174133E-1,3.058290253E0,9.931696930E0,1.041164685E1
1.918960208E0,-5.867797852E-1,2.976560211E0,1.000833755E1,1.045806109E1
1.928984208E0,-5.574407959E-1,2.976111145E0,1.004366409E1,1.049014615E1
1.939008208E0,-6.457571411E-1,2.956052856E0,1.022583527E1,1.066409666E1
1.949033208E0,-7.679031372E-1,2.978805542E0,1.029633865E1,1.074604799E1
1.959057208E0,-8.199948120E-1,2.950214996E0,1.038944504E1,1.083128470E1
1.969081208E0,-7.920030212E-1,2.866389313E0,1.034932846E1,1.076810364E1
1.979105208E0,-7.162605286E-1,2.731819153E0,1.027747787E1,1.065844344E1
1.989129208E0,-6.575825500E-1,2.646197205E0,1.027178970E1,1.062753208E1
1.999154208E0,-6.506968689E-1,2.537972260E0,1.038375687E1,1.070920708E1
2.009178208E0,-5.800437927E-1,2.367027740E0,1.057206528E1,1.084932419E1
2.019202208E0,-4.111949158E-1,2.171234894E0,1.068642746E1,1.091251914E1
2.029226208E0,-2.306703186E-1,2.015109558E0,1.071606583E1,1.090632578E1
2.039250208E0,-7.050338745E-2,1.911824341E0,1.064271835E1,1.081330185E1
2.049275208E0,1.975891113E-2,1.840722198E0,1.048075516E1,1.064118778E1
2.059299208E0,-8.831634521E-3,1.802401886E0,1.030262558E1,1.045910247E1
2.069323208E0,-1.857637024E-1,1.750459900E0,1.014171021E1,1.029334270E1
2.079347208E0,-3.188369751E-1,1.781894531E0,9.939480743E0,1.010297395E1
2.089371208E0,-3.945794678E-1,1.825453949E0,9.810149689E0,9.986341272E0
2.099396208E0,-4.670288086E-1,1.860032043E0,9.802216187E0,9.988056732E0
2.109420208E0,-4.426295471E-1,1.837129669E0,9.761351166E0,9.942582306E0
2.119444208E0,-3.501219177E-1,1.688339081E0,9.771380310E0,9.922345860E0
2.129468208E0,-2.222877502E-1,1.537303162E0,9.744586029E0,9.867607093E0
2.139492208E0,-1.188528442E-1,1.399290161E0,9.659413147E0,9.760963134E0
2.149517208E0,-9.954299927E-2,1.291663971E0,9.567504272E0,9.654814479E0
2.159541208E0,-1.914518738E-1,1.255588989E0,9.467661896E0,9.552475035E0
2.169565208E0,-2.655477905E-1,1.329984283E0,9.320068817E0,9.418230013E0
2.179589208E0,-2.799179077E-1,1.485061798E0,9.026080170E0,9.151714911E0
2.189613208E0,-3.064128113E-1,1.557660828E0,8.681796112E0,8.825745283E0
2.199638208E0,-3.950285339E-1,1.752854919E0,8.371192017E0,8.561857491E0
2.209662208E0,-5.095404053E-1,2.025138702E0,8.016579437E0,8.284103093E0
2.219686208E0,-6.471043396E-1,2.151026917E0,7.846682739E0,8.161868097E0
2.229710208E0,-8.174501038E-1,2.271526337E0,7.683671722E0,8.053997002E0
2.239734208E0,-9.421408081E-1,2.421664124E0,7.605983276E0,8.037603376E0
2.249759208E0,-1.034947815E0,2.646346893E0,7.599247284E0,8.113126903E0
2.259783208E0,-1.333726501E0,2.508932648E0,7.548802185E0,8.065852952E0
2.269807208E0,-1.411864014E0,2.419269104E0,7.679929504E0,8.174811324E0
2.279831208E0,-1.229692841E0,2.801723785E0,7.845634918E0,8.421151223E0
2.289855208E0,-9.704319763E-1,2.843486938E0,7.890541534E0,8.443210402E0
2.299880208E0,-7.415579224E-1,2.691253510E0,8.027506714E0,8.499036277E0
2.309904208E0,-5.478607178E-1,2.719095612E0,8.319549408E0,8.769751117E0
2.319928208E0,-4.960684204E-1,2.736908569E0,8.695717163E0,9.129745307E0
2.329952208E0,-4.731660461E-1,2.729274445E0,9.125772858E0,9.536904915E0
2.339976208E0,-4.608915710E-1,2.685415649E0,9.380992126E0,9.768668872E0
2.350001208E0,-4.185296631E-1,2.500849457E0,9.694440308E0,1.002055827E1
2.360025208E0,-4.390370178E-1,2.399360504E0,9.853559418E0,1.015097619E1
2.370049208E0,-4.725672913E-1,2.476300507E0,9.921368408E0,1.023664667E1
2.380073208E0,-5.845344543E-1,2.541714478E0,9.932145996E0,1.026886153E1
2.390097208E0,-6.595285034E-1,2.650987244E0,9.796677704E0,1.017042798E1
2.400122708E0,-6.924600220E-1,2.837798767E0,9.591005402E0,1.002596566E1
2.410146708E0,-7.068301392E-1,3.022664337E0,9.499545593E0,9.993871873E0
2.420170708E0,-6.987469482E-1,3.064577179E0,9.348210297E0,9.862500511E0
2.430194708E0,-7.089257812E-1,3.047512665E0,9.240584106E0,9.755936851E0
2.440218708E0,-7.723937988E-1,3.000360718E0,9.285041656E0,9.788296848E0
2.450243708E0,-8.045768738E-1,3.032992859E0,9.207951965E0,9.727937552E0
2.460267708E0,-7.176077271E-1,3.088826752E0,9.194779358E0,9.726241771E0
2.470291708E0,-6.108796692E-1,3.064128113E0,9.239236908E0,9.753232987E0
2.480315708E0,-5.074447632E-1,3.035986633E0,9.292376404E0,9.788920995E0
2.490339708E0,-4.954696655E-1,3.011737061E0,9.377998352E0,9.862195668E0
2.500364708E0,-6.021977234E-1,3.016227722E0,9.466464386E0,9.953603355E0
2.510388708E0,-6.863227844E-1,2.929557953E0,9.474697266E0,9.940987730E0
2.520412708E0,-7.458988953E-1,2.745889893E0,9.361382904E0,9.784261155E0
2.530436708E0,-6.956034851E-1,2.525248718E0,9.222172394E0,9.586929068E0
2.540460708E0,-6.532415771E-1,2.372566223E0,9.194779358E0,9.518390751E0
2.550485708E0,-6.274951172E-1,2.241289215E0,9.364226990E0,9.649138541E0
2.560509708E0,-6.628216553E-1,2.178719330E0,9.576335907E0,9.843391685E0
2.570533708E0,-7.430548096E-1,2.106120300E0,9.877210236E0,1.012655693E1
2.580557708E0,-7.753875732E-1,1.937421112E0,1.017015106E1,1.038204214E1
2.590581708E0,-7.318281555E-1,1.725312195E0,1.042806473E1,1.059513136E1
2.600606708E0,-6.749464417E-1,1.517394562E0,1.047821045E1,1.060900246E1
2.610630708E0,-6.251000977E-1,1.316362610E0,1.054826477E1,1.064844826E1
2.620654708E0,-6.069877625E-1,1.152752838E0,1.067834427E1,1.075752339E1
2.630678708E0,-6.080355835E-1,9.358538818E-1,1.074495575E1,1.080275908E1
2.640703708E0,-5.914201355E-1,7.400610352E-1,1.076097244E1,1.080259210E1
2.650727708E0,-5.771997070E-1,7.890092468E-1,1.053239777E1,1.057766977E1
2.660751708E0,-6.230044556E-1,9.824070740E-1,1.016341507E1,1.022977341E1
2.670775708E0,-7.605683899E-1,1.188528442E0,9.818532257E0,9.919407231E0
2.680799708E0,-8.991801453E-1,1.399589539E0,9.273365936E0,9.421395417E0
2.690824708E0,-1.087338867E0,1.540746002E0,8.787626038E0,8.987690217E0
2.700848708E0,-1.330133972E0,1.661095734E0,8.551566925E0,8.812365874E0
2.710872708E0,-1.589245148E0,1.820065155E0,8.418343964E0,8.758244824E0
2.720896708E0,-1.831441498E0,1.911225586E0,8.346343689E0,8.756050147E0
2.730920708E0,-1.929487610E0,1.836081848E0,8.150550842E0,8.574706877E0
2.740945708E0,-1.967807922E0,1.749861145E0,8.236771545E0,8.647467117E0
2.750969708E0,-1.818119202E0,1.775757294E0,8.271649017E0,8.653268103E0
2.760993708E0,-1.440304871E0,1.679657135E0,8.162675629E0,8.457245393E0
2.771017708E0,-1.277742920E0,1.308129730E0,8.180189209E0,8.382083623E0
2.781041708E0,-1.437161407E0,1.233135681E0,8.394244080E0,8.605195535E0
2.791066708E0,-1.293310547E0,1.603016510E0,8.397237854E0,8.646150454E0
2.801090708E0,-1.473984833E0,1.454225922E0,8.528215485E0,8.775982205E0
2.811114708E0,-1.506916351E0,1.197360077E0,8.514743500E0,8.729566135E0
2.821138708E0,-9.689350891E-1,1.275796967E0,8.152347107E0,8.308264347E0
2.831162708E0,-1.323397980E0,1.320254517E0,8.019573212E0,8.234561840E0
2.841187708E0,-2.167193298E0,1.116528168E0,8.250842285E0,8.603473738E0
2.851211708E0,-2.625689850E0,8.009843445E-1,8.527467041E0,8.958432745E0
2.861235708E0,-2.049238586E0,8.867559814E-1,9.002129974E0,9.274915581E0
2.871259708E0,-2.043251038E0,1.840572510E0,8.282725983E0,8.727320990E0
2.881284708E0,-1.941013641E0,1.906585236E0,7.779023438E0,8.241104711E0
2.891308708E0,-9.445358276E-1,9.165440369E-1,7.873477020E0,7.982721421E0
2.901332708E0,-5.887257385E-1,6.330335999E-1,8.300538940E0,8.345434455E0
2.911356708E0,1.676513672E-1,8.126600647E-1,7.948770447E0,7.991963149E0
2.921380708E0,6.828799438E-1,8.428971863E-1,8.940907288E0,9.006476770E0
2.931405708E0,1.538201294E0,6.087840271E-1,9.951755219E0,1.008831567E1
2.941429708E0,4.351451111E-1,7.631130981E-1,9.257049866E0,9.298637808E0
2.951453708E0,-1.656156006E0,1.896256714E0,7.665409698E0,8.068280367E0
2.961477708E0,-2.257754974E0,1.110540619E0,9.048084412E0,9.391410411E0
2.971501708E0,-1.004860382E0,-5.746549988E-1,8.195457458E0,8.276804680E0
2.981526708E0,-3.010240173E-1,1.190025330E-1,8.416996765E0,8.423218601E0
2.991550708E0,-1.614243164E0,1.604214020E0,1.169428162E1,1.191366888E1
3.001574708E0,-1.494043121E0,2.091750183E0,1.569725739E1,1.590633437E1
3.011598708E0,1.242416382E-2,3.519780579E0,1.919278839E1,1.951287103E1
3.021622708E0,1.447639618E0,4.309538269E0,2.181952606E1,2.228810217E1
3.031647708E0,2.859653320E0,3.889811096E0,2.334021378E1,2.383429937E1
3.041671708E0,2.983146515E0,3.998036041E0,2.295326843E1,2.348906101E1
3.051695708E0,1.018032990E0,5.222639465E0,2.339829300E1,2.399567606E1
3.061719708E0,-5.837860107E-1,6.227050781E0,2.311343536E1,2.394468337E1
3.071743708E0,6.691085815E-1,5.593418427E0,2.336820557E1,2.403761776E1
3.081768708E0,2.058519287E0,5.847140808E0,2.463157837E1,2.539963012E1
3.091792708E0,2.085014191E0,5.928122406E0,2.482841904E1,2.561133170E1
3.101816708E0,1.054856415E0,5.942043457E0,2.356459717E1,2.432510724E1
3.111840708E0,6.909631348E-1,6.606511688E0,2.179587524E1,2.278560081E1
3.121865708E0,6.054908752E-1,7.380252686E0,1.939337128E1,2.075903655E1
3.131889708E0,3.031196594E-1,7.525151367E0,1.670885376E1,1.832772704E1
3.141913708E0,6.152206421E-2,7.474706268E0,1.495884293E1,1.672249983E1
3.151937708E0,-2.347119141E-1,7.264393616E0,1.325748093E1,1.511910397E1
3.161961708E0,9.639953613E-2,6.875053253E0,1.204126007E1,1.386605907E1
3.171986708E0,6.548881531E-1,6.514752502E0,1.135628448E1,1.310862601E1
3.182010708E0,1.013991394E0,5.745651855E0,1.045875092E1,1.197606632E1
3.192034708E0,1.673669586E0,4.488116913E0,9.641899567E0,1.076617809E1
3.202058708E0,2.408042450E0,3.407813416E0,9.049730988E0,9.965414776E0
3.212082708E0,2.751428375E0,2.141147461E0,8.825197906E0,9.488887640E0
3.222107708E0,3.043321381E0,7.214996338E-1,8.196654968E0,8.773113439E0
3.232131708E0,3.171454926E0,-1.926493835E-1,6.476132812E0,7.213566132E0
3.242155708E0,3.277733917E0,-5.399272156E-1,5.128335571E0,6.110228045E0
3.252179708E0,3.126099243E0,-4.683760071E-1,3.393143921E0,4.637380535E0
3.262204708E0,2.555036774E0,-4.188290405E-1,1.753753052E0,3.127184108E0
3.272228708E0,1.655108185E0,-2.495310974E-1,4.607418823E-1,1.736067958E0
3.282252708E0,9.078620911E-1,1.841171265E-2,-9.580078125E-3,9.080993037E-1
3.292276708E0,3.564088440E-1,4.138893127E-1,-5.203179932E-1,7.543622746E-1
3.302300708E0,-3.535647583E-1,6.990463257E-1,-3.823049927E-1,8.716828042E-1
3.312325708E0,-8.318202209E-1,9.077124023E-1,-6.372248840E-1,1.386334100E0
3.322349708E0,-1.320404205E0,8.210426331E-1,-9.713301086E-1,1.833319517E0
3.332373708E0,-1.837129669E0,4.915777588E-1,-1.438807983E0,2.384714349E0
3.342397708E0,-1.995500336E0,3.936813354E-1,-1.858834534E0,2.755407848E0
3.352422708E0,-1.293160858E0,5.161267090E-1,-1.136436768E0,1.797259111E0
3.362446708E0,-6.155200195E-1,6.637197876E-1,-5.397775269E-1,1.053920599E0
3.372470708E0,-6.062393188E-2,3.611988831E-1,1.913021851E-1,4.132026382E-1
3.382494708E0,3.323089600E-1,2.784210205E-2,1.190773773E0,1.236586676E0
3.392518708E0,3.414399719E-1,-3.067121887E-1,1.964365082E0,2.017271374E0
3.402543708E0,1.583706665E-1,-4.864883423E-1,2.191742249E0,2.250663515E0
3.412567708E0,1.359173584E-1,-4.005670166E-1,2.302062836E0,2.340602649E0
3.422591708E0,5.089416504E-3,-2.260299683E-2,2.404449921E0,2.404561544E0
3.432615708E0,-1.896556091E-1,2.219883728E-1,2.329455872E0,2.347682420E0
3.442639708E0,-4.137396240E-1,2.573149109E-1,2.244282990E0,2.296562121E0
3.452664708E0,-4.954696655E-1,2.098635864E-1,2.157014465E0,2.223115903E0
3.462688708E0,-4.396357727E-1,2.799179077E-1,1.809137878E0,1.882714400E0
3.472712708E0,-1.184037781E-1,2.284249878E-1,1.792073364E0,1.810448666E0
3.482736708E0,4.043092346E-1,5.119354248E-2,2.032473450E0,2.072929101E0
3.492761708E0,5.093907166E-1,1.095721436E-1,2.115700378E0,2.178915567E0
3.502785708E0,5.685177612E-1,2.808160400E-1,2.286046143E0,2.372356857E0
3.512809708E0,6.529421997E-1,5.998027039E-1,2.401156769E0,2.559619235E0
3.522833708E0,2.142045593E-1,8.665480042E-1,2.821782074E0,2.959601850E0
3.532857708E0,-4.935237122E-1,1.150507507E0,3.684587860E0,3.891454854E0
3.542882708E0,-8.235873413E-1,1.507215729E0,4.616100769E0,4.925279857E0
3.552906708E0,-5.304968262E-1,2.018552399E0,5.314248962E0,5.709397753E0
3.562930708E0,5.201683044E-1,2.346370697E0,5.837111664E0,6.312519552E0
3.572954708E0,1.560355225E0,2.776725769E0,6.207890625E0,6.977307535E0
3.582979708E0,2.067650299E0,3.397784271E0,7.412136383E0,8.411889293E0
3.593003708E0,1.803300018E0,4.317172394E0,9.564061432E0,1.064711884E1
3.603027708E0,8.202941895E-1,5.873486023E0,1.117845428E1,1.265419143E1
3.613051708E0,-4.270619202E-1,7.398365021E0,1.184127594E1,1.396903729E1
3.623075708E0,-1.823358307E0,8.365653534E0,1.222133560E1,1.492212580E1
3.633100708E0,-1.977537689E0,8.892707520E0,1.303175034E1,1.590023330E1
3.643124708E0,-7.816744995E-1,9.660460968E0,1.354024292E1,1.665153745E1
3.653148708E0,1.004860382E0,9.635013885E0,1.370534958E1,1.678332041E1
3.663172708E0,2.508633270E0,8.540639648E0,1.535821243E1,1.775135081E1
3.673197708E0,2.737507324E0,7.851023712E0,1.785337372E1,1.969455439E1
3.683221708E0,1.976639557E0,8.240364075E0,1.899489990E1,2.079944534E1
3.693245708E0,7.930508423E-1,9.369166718E0,1.936747513E1,2.152926630E1
3.703269708E0,1.290316772E-1,1.045890060E1,2.048789520E1,2.300345845E1
3.713293708E0,7.631130981E-1,1.105002136E1,2.287752594E1,2.541783836E1
3.723318708E0,1.705403595E0,1.152273834E1,2.490610748E1,2.749538307E1
3.733342708E0,2.431393890E0,1.158231445E1,2.619911865E1,2.874813911E1
3.743366708E0,2.925067291E0,1.142080032E1,2.637530228E1,2.889026253E1
3.753390708E0,3.207679596E0,1.163844772E1,2.502466095E1,2.778446201E1
3.763414708E0,3.039878540E0,1.233988907E1,2.307466599E1,2.634300541E1
3.773439708E0,2.313588867E0,1.279449371E1,2.185455322E1,2.542977112E1
3.783463708E0,1.071322174E0,1.292128006E1,2.121283768E1,2.486144992E1
3.793487708E0,-4.619393921E-1,1.227028381E1,2.029779053E1,2.372284876E1
3.803511708E0,-1.680255890E0,1.099972595E1,1.922916275E1,2.221661385E1
3.813536708E0,-1.629361725E0,9.546248474E0,1.894400574E1,2.127583213E1
3.823560708E0,-4.978646851E-1,8.062084808E0,1.805635162E1,1.978072078E1
3.833584708E0,1.241667938E0,6.361321564E0,1.609962067E1,1.735528556E1
3.843608708E0,3.016227722E0,4.720134430E0,1.345716568E1,1.457644013E1
3.853633708E0,4.310137024E0,3.047213287E0,1.093730576E1,1.214444100E1
3.863657708E0,4.469705200E0,1.747316437E0,9.203012238E0,1.037915283E1
3.873681708E0,3.593876495E0,7.785310364E-1,8.061635742E0,8.860701421E0
3.883705708E0,2.258204041E0,2.637515259E-1,6.793472900E0,7.163820517E0
3.893729708E0,1.029559021E0,-8.771759033E-2,5.340444489E0,5.439488348E0
3.903754708E0,7.319778442E-2,-3.598516846E-1,4.121678925E0,4.138005354E0
3.913778708E0,-7.223977661E-1,-2.429447937E-1,2.745590515E0,2.849411866E0
3.923802708E0,-1.287772064E0,-4.011657715E-2,1.312620392E0,1.839276630E0
3.933826708E0,-1.627565460E0,3.463796997E-1,3.245251465E-1,1.695365682E0
3.943850708E0,-1.827998657E0,7.282356262E-1,-6.996450806E-1,2.088398778E0
3.953875708E0,-1.630858612E0,8.159532166E-1,-1.330283661E0,2.257240369E0
3.963899708E0,-9.532177734E-1,7.273374939E-1,-1.196761322E0,1.694072494E0
3.973923708E0,-3.706292725E-1,8.922944641E-1,-1.580862579E0,1.852749838E0
3.983947708E0,-4.710704041E-1,1.052760773E0,-1.802850952E0,2.140206561E0
3.993972708E0,-6.288423157E-1,7.424560547E-1,-1.238674164E0,1.575118197E0
4.003996708E0,-9.879455566E-1,4.361929321E-1,-6.661148071E-1,1.268861550E0
4.014020708E0,-1.383123779E0,1.556762695E-1,-2.257305908E-1,1.410042832E0
4.024044708E0,-1.579515381E0,-2.552192688E-1,3.135978699E-1,1.630444521E0
4.034069708E0,-1.574425964E0,-5.282514954E-1,5.575904846E-1,1.751791628E0
4.044093708E0,-1.220861206E0,-5.334906006E-1,7.339237976E-1,1.521104351E0
4.054117708E0,-7.161108398E-1,-5.295986938E-1,8.643026733E-1,1.241091706E0
4.064141708E0,-1.739382935E-1,-4.138893127E-1,9.696835327E-1,1.068571498E0
4.074165708E0,2.074685669E-1,-2.140548706E-1,9.966275024E-1,1.040254331E0
4.084190708E0,6.812333679E-1,-1.392105103E-1,1.241368561E0,1.422833220E0
4.094214708E0,1.012195129E0,-6.436614990E-3,1.605710907E0,1.898127479E0
4.104238708E0,1.191073151E0,7.694000244E-2,1.957778778E0,2.292917957E0
4.114262708E0,1.258433075E0,1.237925720E-1,2.334545288E0,2.655010378E0
4.124287708E0,1.239871674E0,2.477348328E-1,2.584974518E0,2.877628811E0
4.134311708E0,1.315464478E0,3.121009827E-1,2.575394440E0,2.908695642E0
4.144335708E0,1.293160858E0,4.165837097E-1,2.305505676E0,2.676035018E0
4.154359708E0,1.084045715E0,6.866221619E-1,1.956431580E0,2.339707168E0
4.164383708E0,9.210346985E-1,1.180445251E0,1.746567993E0,2.300490309E0
4.174408708E0,9.569599915E-1,1.501826935E0,1.885479126E0,2.593508840E0
4.184432708E0,1.221310272E0,1.526525574E0,2.302212524E0,3.020275089E0
4.194456708E0,1.597927094E0,1.517693939E0,2.665956116E0,3.458914266E0
4.204480708E0,1.764530640E0,1.682052155E0,3.004402313E0,3.869018104E0
4.214505708E0,2.051932983E0,1.764081573E0,3.877237244E0,4.728147778E0
4.224529708E0,2.076631622E0,1.920805664E0,4.866829376E0,5.629202561E0
4.234553708E0,1.716779938E0,2.697241058E0,5.661377106E0,6.501817701E0
4.244577708E0,1.529369659E0,4.008663940E0,6.980434113E0,8.193583986E0
4.254602708E0,1.506467285E0,5.725144501E0,8.120762787E0,1.004955280E1
4.264626708E0,1.735640717E0,7.339537354E0,9.567504272E0,1.218270886E1
4.274650708E0,1.315614166E0,9.541458435E0,1.097652420E1,1.460323092E1
4.284674708E0,1.987866211E-1,1.186193298E1,1.179023209E1,1.672586449E1
4.294698708E0,-3.956272888E-1,1.265992355E1,1.283999908E1,1.803595747E1
4.304723708E0,-4.902305603E-1,1.236398895E1,1.380893417E1,1.854171545E1
4.314747708E0,-3.845503235E-1,1.175116333E1,1.516197052E1,1.918653352E1
4.324771708E0,3.665876770E-1,1.054197784E1,1.757525208E1,2.049773570E1
4.334795708E0,1.747316437E0,9.460626526E0,1.998958145E1,2.218422718E1
4.344820708E0,2.595901794E0,9.217831421E0,2.149994064E1,2.353623950E1
4.354844708E0,2.714604950E0,9.699679413E0,2.189227478E1,2.409822723E1
4.364868708E0,2.251018982E0,1.096200439E1,2.262994080E1,2.524572929E1
4.374892708E0,1.309626617E0,1.257295441E1,2.349124969E1,2.667645247E1
4.384917708E0,9.051676941E-1,1.343396393E1,2.419343948E1,2.768778123E1
4.394941708E0,1.011446686E0,1.366253860E1,2.457903763E1,2.813924442E1
4.404966083E0,1.582359467E0,1.344683716E1,2.412518143E1,2.766488153E1
4.414990083E0,2.612966309E0,1.308848236E1,2.360336655E1,2.711558363E1
4.425014083E0,3.434607697E0,1.318922287E1,2.236753647E1,2.619272452E1
4.435039083E0,3.594774628E0,1.329969315E1,2.127346161E1,2.534490898E1
4.445063083E0,2.849474487E0,1.356613907E1,2.075164673E1,2.495577040E1
4.455087083E0,1.711540833E0,1.367990250E1,2.014256332E1,2.440885007E1
4.465111083E0,7.423063660E-1,1.320149734E1,1.885539001E1,2.302946555E1
4.475136083E0,7.933502197E-3,1.250679199E1,1.756252853E1,2.156066598E1
4.485160083E0,-4.330494690E-1,1.144280457E1,1.644330597E1,2.003765504E1
4.495184083E0,-3.101550293E-1,9.988578644E0,1.570534058E1,1.861519868E1
4.505208083E0,5.343887329E-2,8.526269531E0,1.446846268E1,1.679394355E1
4.515233083E0,8.190966797E-1,6.616989899E0,1.313997528E1,1.473480319E1
4.525257083E0,1.423839111E0,4.903652802E0,1.165072220E1,1.272055252E1
4.535281083E0,1.833237762E0,3.162174225E0,9.824519806E0,1.048242796E1
4.545305083E0,2.397713928E0,1.371448059E0,8.335566101E0,8.781319040E0
4.555329083E0,2.845432892E0,1.034349060E-1,6.618037720E0,7.204554836E0
4.565354083E0,3.173101501E0,-7.683522034E-1,4.915627899E0,5.901045322E0
4.575378083E0,3.001707916E0,-1.223106537E0,3.532055054E0,4.793918326E0
4.585402083E0,2.642305298E0,-1.366957397E0,1.980980530E0,3.574161954E0
4.595426083E0,2.142045593E0,-1.354682922E0,5.560935974E-1,2.594757259E0
4.605451083E0,1.169368286E0,-1.124910736E0,-6.087840271E-1,1.733050589E0
4.615475083E0,1.086740112E-1,-6.876699829E-1,-1.707050171E0,1.843561860E0
4.625499083E0,-8.815168762E-1,-4.251159668E-2,-2.541864166E0,2.690716016E0
4.635523083E0,-1.564546509E0,5.519023132E-1,-3.364253998E0,3.751080765E0
4.645548083E0,-2.044598236E0,1.038690033E0,-4.074976044E0,4.675969278E0
4.655572083E0,-2.316432953E0,1.148262177E0,-4.333787842E0,5.046393238E0
4.665596083E0,-2.282603302E0,8.906478882E-1,-4.114194489E0,4.788541300E0
4.675620083E0,-1.872605896E0,5.062472534E-1,-3.910168762E0,4.364900786E0
4.685645083E0,-1.176553345E0,8.577163696E-2,-3.369642792E0,3.570171857E0
4.695669083E0,-5.740562439E-1,-9.729766846E-2,-2.898123322E0,2.956032171E0
4.705693083E0,-4.577481079E-1,-1.411564636E-1,-2.517015839E0,2.562191876E0
4.715717083E0,-5.263055420E-1,-3.927832031E-1,-1.900897064E0,2.011140427E0
4.725741083E0,-7.420069885E-1,-6.932084656E-1,-1.373394012E0,1.708017407E0
4.735766083E0,-1.067879333E0,-7.884104919E-1,-1.018182678E0,1.672917613E0
4.745790083E0,-1.414408722E0,-4.670288086E-1,-9.969268799E-1,1.792353521E0
4.755814083E0,-1.547781372E0,-1.981878662E-1,-7.551795959E-1,1.733551796E0
4.765838083E0,-1.150507507E0,-2.426454163E-1,6.706054688E-2,1.177727235E0
4.775863083E0,-4.578977966E-1,-2.372566223E-1,7.099736023E-1,8.775098934E-1
4.785887083E0,7.484436035E-3,-2.918930054E-2,8.310717773E-1,8.316178997E-1
4.795911083E0,7.126679993E-1,-2.186952209E-1,1.331032104E0,1.525571939E0
4.805935083E0,1.307231598E0,-4.161346436E-1,2.401007080E0,2.765295191E0
4.815960083E0,1.391656036E0,-2.168989563E-1,3.333268433E0,3.618622683E0
4.825984083E0,1.266815643E0,1.766326904E-2,3.816613312E0,4.021401626E0
4.836008083E0,1.118623810E0,2.251318359E-1,3.857628021E0,4.022846942E0
4.846032083E0,9.680369568E-1,5.550457764E-1,3.747457123E0,3.910064737E0
4.856057083E0,7.719447327E-1,9.958790588E-1,3.340902557E0,3.570616707E0
4.866081083E0,4.508624268E-1,1.293460236E0,2.753973083E0,3.075822500E0
4.876105083E0,3.944297791E-1,1.364263000E0,2.822231140E0,3.159395036E0
4.886129083E0,3.607498169E-1,1.409319305E0,4.073179779E0,4.325172233E0
4.896154083E0,2.980302429E-1,2.060315552E0,5.636229401E0,6.008394466E0
4.906178083E0,3.342549133E-1,3.377576294E0,6.675967255E0,7.489211357E0
4.916202083E0,3.727249146E-2,5.006039886E0,7.278763733E0,8.834151123E0
4.926226083E0,-4.534071350E-1,6.525829468E0,9.274114380E0,1.134906277E1
4.936250083E0,-1.332978058E0,9.190288696E0,1.211894852E1,1.526784693E1
4.946275083E0,-1.926044769E0,1.240335709E1,1.362870895E1,1.852821155E1
4.956299083E0,-1.710642700E0,1.316257828E1,1.502066437E1,2.004495257E1
4.966323083E0,-8.050259399E-1,1.131646729E1,1.724219467E1,2.063985891E1
4.976347083E0,-5.703140259E-2,9.630074158E0,1.927915878E1,2.155058107E1
4.986372083E0,8.294252014E-1,8.366851044E0,2.090118576E1,2.252890829E1
4.996396083E0,2.216291199E0,7.418572998E0,2.167402863E1,2.301544457E1
5.006420083E0,2.836900635E0,7.169191589E0,2.173165878E1,2.305884444E1
5.016444083E0,2.642005920E0,7.019951935E0,2.182072357E1,2.307387912E1
5.026469083E0,1.743125153E0,7.186705170E0,2.220213043E1,2.340132074E1
5.036493083E0,3.649411011E-1,7.483837280E0,2.236663834E1,2.358829186E1
5.046517083E0,-6.186634827E-1,7.435338135E0,2.213132767E1,2.335514209E1
5.056541083E0,-1.144969025E0,7.008425903E0,2.122017242E1,2.237687881E1
5.066566083E0,-1.287472687E0,6.324348450E0,2.024539948E1,2.124926279E1
5.076590083E0,-1.413809967E0,5.664520569E0,1.927721283E1,2.014191119E1
5.086614083E0,-1.580712891E0,5.020859070E0,1.825693451E1,1.900061411E1
5.096638083E0,-1.794468384E0,4.616998901E0,1.664164352E1,1.736321096E1
5.106663083E0,-1.809287567E0,3.858376465E0,1.493459335E1,1.553070086E1
5.116687083E0,-1.799857178E0,3.182232513E0,1.366987335E1,1.415031897E1
5.126711083E0,-1.771865387E0,3.286715240E0,1.245499969E1,1.300265440E1
5.136735083E0,-1.556613007E0,3.402424622E0,1.123818008E1,1.184467091E1
5.146760083E0,-1.362616425E0,3.374133453E0,9.999954987E0,1.064145666E1
5.156784083E0,-1.280437317E0,3.282374268E0,9.049281921E0,9.710973373E0
5.166808083E0,-1.241218872E0,3.079695740E0,8.439599762E0,9.069288521E0
5.176832083E0,-1.308279419E0,2.765050049E0,8.038583679E0,8.600925786E0
5.186856083E0,-1.357377319E0,2.377955017E0,8.191266174E0,8.636780927E0
5.196881083E0,-1.688638458E0,2.187251587E0,8.483907623E0,8.922570140E0
5.206905083E0,-1.931583252E0,2.027982788E0,8.662635956E0,9.104119384E0
5.216929083E0,-1.864971771E0,1.943109283E0,8.447533264E0,8.866488123E0
5.226953083E0,-1.736688538E0,1.971550140E0,8.001610565E0,8.421927848E0
5.236978083E0,-1.827250214E0,2.219734039E0,7.491172028E0,8.023946716E0
5.247002083E0,-2.026336212E0,2.647993469E0,6.685547333E0,7.470906973E0
5.257026083E0,-2.143991547E0,2.932551727E0,5.881120148E0,6.912606858E0
5.267050083E0,-2.269430695E0,3.155288544E0,5.582341461E0,6.802109795E0
5.277075083E0,-2.093845825E0,3.339106293E0,5.707331543E0,6.935953757E0
5.287099083E0,-1.549278259E0,3.530258789E0,5.809419250E0,6.972255178E0
5.297123083E0,-1.184337158E0,3.667972412E0,6.389463043E0,7.462031500E0
5.307147083E0,-1.066382446E0,3.533252563E0,7.194189606E0,8.085629801E0
5.317172083E0,-9.434880066E-1,3.528761902E0,7.460934906E0,8.307098161E0
5.327196083E0,-8.785231018E-1,3.482508087E0,7.564968567E0,8.374271003E0
5.337220083E0,-9.053173828E-1,3.404669952E0,7.499105530E0,8.285406495E0
5.347244083E0,-9.575587463E-1,3.366349640E0,7.152875519E0,7.963219000E0
5.357269083E0,-8.306227112E-1,3.326382751E0,6.829398193E0,7.641690649E0
5.367293083E0,-6.780899048E-1,3.494782562E0,6.913523254E0,7.776253267E0
5.377317083E0,-6.273454285E-1,3.526067505E0,7.027885437E0,7.887831644E0
5.387341083E0,-5.270539856E-1,3.538641357E0,7.530540161E0,8.337193993E0
5.397365833E0,-3.273692322E-1,3.752546539E0,7.718998260E0,8.589045948E0
5.407389833E0,-2.912942505E-1,4.130360870E0,7.555089111E0,8.615341243E0
5.417413833E0,-2.218386841E-1,4.455335083E0,7.567363586E0,8.784316408E0
5.427437833E0,-1.986369324E-1,4.675527191E0,7.635471954E0,8.955470011E0
5.437462833E0,-3.327580261E-1,4.612508240E0,8.112080841E0,9.337655795E0
5.447486833E0,-5.447172546E-1,4.508175201E0,8.515641632E0,9.650726032E0
5.457510833E0,-5.315446472E-1,4.362827454E0,8.664731598E0,9.715676856E0
5.467534833E0,-4.339476013E-1,4.065246277E0,9.105564880E0,9.981274949E0
5.477559833E0,-4.047583008E-1,3.862118683E0,9.429790649E0,1.019807539E1
5.487583833E0,-1.428030396E-1,3.769611053E0,9.801767120E0,1.050261867E1
5.497607833E0,1.920506287E-1,3.882476349E0,1.003902374E1,1.076533807E1
5.507631833E0,4.848417664E-1,4.161795502E0,9.925260315E0,1.077341198E1
5.517656833E0,7.469467163E-1,4.345912628E0,9.874366150E0,1.081424953E1
5.527680833E0,7.472460938E-1,4.481979675E0,9.488169250E0,1.052007007E1
5.537704833E0,5.833369446E-1,4.709506531E0,8.959917755E0,1.013902658E1
5.547728833E0,2.296224976E-1,5.011129303E0,8.490793304E0,9.861932586E0
5.557753833E0,-2.739303589E-1,5.252577209E0,8.542735291E0,1.003209507E1
5.567777833E0,-6.295907593E-1,5.507048035E0,8.659043427E0,1.028119622E1
5.577801833E0,-6.562353516E-1,5.573509827E0,8.677155762E0,1.033381288E1
5.587825833E0,-4.168830872E-1,5.426964569E0,9.012159119E0,1.052828324E1
5.597850833E0,3.981719971E-2,5.286107483E0,9.275012512E0,1.067569084E1
5.607874833E0,3.441343689E-1,5.137167206E0,9.392069092E0,1.071073654E1
5.617898833E0,5.595364380E-1,4.757706299E0,9.211993561E0,1.038314382E1
5.627922833E0,7.673043823E-1,4.272714844E0,8.947194214E0,9.944703739E0
5.637947833E0,9.183403015E-1,4.340224457E0,1.030067963E1,1.121538666E1
5.647971833E0,8.475375366E-1,4.363276520E0,1.032612671E1,1.124212590E1
5.657995833E0,7.717950439E-1,3.887565765E0,9.858199768E0,1.062510884E1
5.668019833E0,6.632707214E-1,3.873195648E0,9.687554626E0,1.045419950E1
5.678044833E0,5.601351929E-1,4.193379822E0,9.648336182E0,1.053511162E1
5.688068833E0,3.406915283E-1,4.199816437E0,9.057814178E0,9.989921247E0
5.698092833E0,8.607101440E-2,4.153263245E0,8.959019623E0,9.875273991E0
5.708116833E0,-1.570234680E-1,4.574936371E0,9.120084686E0,1.020444236E1
5.718141833E0,-2.201921082E-1,4.323309631E0,8.619226227E0,9.645234651E0
5.728165833E0,5.239105225E-3,3.761078796E0,8.477770386E0,9.274606831E0
5.738189833E0,3.254232788E-1,3.499273224E0,8.539741516E0,9.234608739E0
5.748213833E0,3.565585327E-1,3.455115051E0,8.573571167E0,9.250463586E0
5.758238833E0,4.583468628E-1,3.211122437E0,8.695567474E0,9.280855718E0
5.768262833E0,6.039939880E-1,3.140169983E0,8.744665375E0,9.310996122E0
5.778286833E0,5.625302124E-1,3.211272125E0,8.470735016E0,9.076456391E0
5.788311833E0,4.076023865E-1,3.129392395E0,8.455616455E0,9.025335789E0
5.798335833E0,2.941383362E-1,3.038231964E0,8.515641632E0,9.046188326E0
5.808359833E0,5.568420410E-2,3.166215820E0,8.511899414E0,9.081875081E0
5.818383833E0,-2.270777893E-1,3.391048279E0,8.397387543E0,9.059077784E0
5.828408833E0,-4.264631653E-1,3.555556183E0,8.456065521E0,9.183076538E0
5.838432833E0,-5.291496277E-1,3.691623230E0,8.310119019E0,9.108576151E0
5.848456833E0,-4.337979126E-1,3.815715179E0,8.137976990E0,8.998585025E0
5.858480833E0,-2.415975952E-1,3.856131134E0,7.876171417E0,8.772809864E0
5.868505833E0,-1.056802368E-1,3.883823547E0,7.611521759E0,8.545789440E0
5.878529833E0,-3.323089600E-2,3.972888336E0,7.638016663E0,8.609543807E0
5.888553833E0,5.792953491E-2,3.995940399E0,7.867040405E0,8.823900512E0
5.898577833E0,1.025367737E-1,4.070934448E0,8.056246948E0,9.026967152E0
5.908602833E0,8.412506104E-2,4.177961884E0,8.172555084E0,9.178948694E0
5.918626833E0,9.999206543E-2,4.149670715E0,8.450527039E0,9.414944115E0
5.928650833E0,2.046244812E-1,4.137545929E0,8.594826965E0,9.541080026E0
5.938675833E0,3.671864319E-1,4.247716827E0,8.590785370E0,9.590595257E0
5.948699833E0,3.183879089E-1,4.472100220E0,8.562344513E0,9.665132942E0
5.958723833E0,1.676513672E-1,4.691094818E0,8.599916382E0,9.797603755E0
5.968747833E0,9.894424438E-2,4.847519531E0,8.689130859E0,9.950338218E0
5.978772833E0,1.574725342E-1,4.922663269E0,8.705596619E0,1.000224094E1
5.988796833E0,3.095562744E-1,4.976700897E0,8.550968170E0,9.898607657E0
5.998820833E0,4.802014160E-1,5.107977905E0,8.499624939E0,9.928023760E0
6.008844833E0,5.242098999E-1,5.170248413E0,8.564739532E0,1.001803513E1
6.018869833E0,4.556524658E-1,5.107079773E0,8.697513428E0,1.009636681E1
6.028893833E0,3.173400879E-1,5.015619965E0,8.639134827E0,9.994588481E0
6.038917833E0,2.183958435E-1,4.978048096E0,8.634644165E0,9.969239662E0
6.048941833E0,6.825805664E-2,4.970563660E0,8.921447754E0,1.021290322E1
6.058966833E0,-7.484436035E-2,4.888683929E0,9.230105896E0,1.044507956E1
6.068990833E0,2.424957275E-2,4.713997192E0,9.393715668E0,1.051019751E1
6.079014833E0,2.107617188E-1,4.537214813E0,9.486672363E0,1.051796992E1
6.089038833E0,4.520599365E-1,4.416116638E0,9.551786957E0,1.053295203E1
6.099063833E0,5.801934814E-1,4.384382629E0,9.509874115E0,1.048795219E1
6.109087833E0,5.400769043E-1,4.299958191E0,9.204209747E0,1.017343603E1
6.119111833E0,3.469784546E-1,4.294719086E0,9.139244843E0,1.010399933E1
6.129136833E0,-1.496887207E-2,4.528832245E0,9.514813843E0,1.053765762E1
6.139160833E0,-3.942800903E-1,4.712200928E0,9.052724762E0,1.021333050E1
6.149184833E0,-8.340655518E-1,5.120701447E0,8.489895172E0,9.949651687E0
6.159208833E0,-1.380429382E0,5.679938507E0,8.500523071E0,1.031630647E1
6.169233833E0,-1.827250214E0,5.866151276E0,9.069340210E0,1.095461117E1
6.179257833E0,-1.882335663E0,5.474415894E0,1.008467880E1,1.162811952E1
6.189281833E0,-1.470841370E0,4.915178833E0,1.087458618E1,1.202410005E1
6.199305833E0,-5.999523926E-1,4.558021545E0,1.113863708E1,1.205009292E1
6.209330833E0,3.031196594E-1,4.074377289E0,1.121333176E1,1.193445604E1
6.219354833E0,6.505471802E-1,3.292403412E0,1.130913254E1,1.179659318E1
6.229378833E0,6.644682312E-1,2.630180511E0,1.119971008E1,1.152357902E1
6.239403833E0,4.616400146E-1,2.514620819E0,1.080932190E1,1.110755911E1
6.249427833E0,-4.191284180E-2,2.955154724E0,1.038764877E1,1.079990478E1
6.259451833E0,-7.361691284E-1,3.566333771E0,1.020517822E1,1.083542081E1
6.269475833E0,-1.301094360E0,3.937412109E0,1.025128235E1,1.105824807E1
6.279500833E0,-1.576970673E0,4.061653748E0,1.013916550E1,1.103569412E1
6.289524833E0,-1.537303162E0,3.985761566E0,9.984986115E0,1.086045782E1
6.299548833E0,-1.065634003E0,3.653602295E0,1.007869125E1,1.077331903E1
6.309573833E0,-3.370989990E-1,3.117417297E0,1.008707382E1,1.056319008E1
6.319597833E0,1.514849854E-1,2.689008179E0,9.914632416E0,1.027393053E1
6.329621833E0,4.640350342E-1,2.406096497E0,9.884544983E0,1.018375463E1
6.339645833E0,5.496569824E-1,2.289938049E0,9.663754120E0,9.946561353E0
6.349670833E0,3.987707520E-1,2.338287506E0,9.252858582E0,9.552067761E0
6.359694833E0,1.049317932E-1,2.477498016E0,8.813971252E0,9.156150738E0
6.369718833E0,-3.362008667E-1,2.626587982E0,8.451724548E0,8.856841609E0
6.379742833E0,-7.818241882E-1,2.782114563E0,8.299640808E0,8.788370045E0
6.389767833E0,-1.029409332E0,2.945724335E0,8.163873138E0,8.739897027E0
6.399791250E0,-1.078956299E0,3.023263092E0,7.865992584E0,8.495769874E0
6.409815250E0,-1.061891785E0,2.989283752E0,7.765401764E0,8.388378632E0
6.419840250E0,-1.012644196E0,2.932701416E0,7.763755188E0,8.360746407E0
6.429864250E0,-9.367520142E-1,2.988086243E0,7.685917053E0,8.299366523E0
6.439888250E0,-7.788304138E-1,3.118165741E0,7.695796509E0,8.339953136E0
6.449912250E0,-5.519023132E-1,3.311862946E0,7.849077759E0,8.537040119E0
6.459937250E0,-4.608915710E-1,3.375780029E0,8.005203094E0,8.700091289E0
6.469961250E0,-4.683760071E-1,3.291355591E0,8.048463135E0,8.708051248E0
6.479985250E0,-5.529501343E-1,3.230731659E0,8.066425781E0,8.706928608E0
6.490010250E0,-6.634204102E-1,3.234174500E0,7.995623016E0,8.650433443E0
6.500034250E0,-7.875123596E-1,3.290008392E0,7.773335266E0,8.477562863E0
6.510058250E0,-9.211843872E-1,3.414848785E0,7.602091370E0,8.384602918E0
6.520082250E0,-1.041384430E0,3.568728790E0,7.564070435E0,8.428254164E0
6.530107250E0,-1.096918945E0,3.665876770E0,7.646099854E0,8.550130212E0
6.540131250E0,-1.070573730E0,3.718267822E0,7.973469086E0,8.862722661E0
6.550155250E0,-1.082698517E0,3.780837708E0,8.357121277E0,9.236257136E0
6.560180250E0,-1.039288788E0,3.867208099E0,8.651558990E0,9.533356840E0
6.570204250E0,-8.866062927E-1,3.929328918E0,8.895551605E0,9.765067067E0
6.580228250E0,-7.683522034E-1,3.853287048E0,9.180109863E0,9.985619825E0
6.590252250E0,-6.444099426E-1,3.727997589E0,9.372310181E0,1.010709792E1
6.600277250E0,-5.240602112E-1,3.691922607E0,9.435478821E0,1.014559965E1
6.610301250E0,-4.834945679E-1,3.698059845E0,9.578132172E0,1.027862002E1
6.620325250E0,-4.511618042E-1,3.684737549E0,9.884095917E0,1.055822854E1
6.630350250E0,-3.650907898E-1,3.679049377E0,9.994117126E0,1.065603457E1
6.640374250E0,-2.508782959E-1,3.759731598E0,9.868378601E0,1.056330525E1
6.650398250E0,-2.317181396E-1,3.917054443E0,9.620045013E0,1.038952717E1
6.660422250E0,-3.781137085E-1,4.047433319E0,9.370663605E0,1.021440272E1
6.670447250E0,-5.830375671E-1,4.164190521E0,9.261390839E0,1.017122292E1
6.680471250E0,-7.243437195E-1,4.362228699E0,9.201814728E0,1.020916781E1
6.690495250E0,-7.541317749E-1,4.599934387E0,9.123826904E0,1.024560045E1
6.700520250E0,-7.650590515E-1,4.873116302E0,9.104966125E0,1.035533611E1
6.710544250E0,-8.265811157E-1,5.080884247E0,9.000782776E0,1.036883367E1
6.720568250E0,-9.681866455E-1,5.223387909E0,8.960366821E0,1.041678166E1
6.730592250E0,-1.054107971E0,5.266198883E0,9.029223633E0,1.050575431E1
6.740617250E0,-1.081800385E0,5.224884796E0,9.095835114E0,1.054532738E1
6.750641250E0,-9.623487854E-1,5.197791138E0,9.188941498E0,1.060093363E1
6.760665250E0,-7.282356262E-1,5.062023468E0,9.193282471E0,1.052002145E1
6.770690250E0,-4.284091187E-1,4.816084900E0,9.359886017E0,1.053497387E1
6.780714250E0,-7.259902954E-2,4.545148315E0,9.544003143E0,1.057126482E1
6.790738250E0,1.613644409E-1,4.380341034E0,9.700427856E0,1.064479810E1
6.800762250E0,3.691323853E-1,4.285139008E0,9.921368408E0,1.081352052E1
6.810787250E0,5.959107971E-1,4.140839081E0,1.008857071E1,1.092158033E1
6.820811250E0,7.048841858E-1,4.012555847E0,1.026729904E1,1.104603530E1
6.830835250E0,7.304809570E-1,3.950884094E0,1.045860123E1,1.120381306E1
6.840860250E0,7.393125916E-1,3.927233276E0,1.050500473E1,1.123943365E1
6.850884250E0,7.521858215E-1,3.916306000E0,1.042866348E1,1.116513584E1
6.860908250E0,7.746391296E-1,3.876189423E0,1.037462585E1,1.110215168E1
6.870933250E0,8.229885864E-1,3.715124359E0,1.046608566E1,1.113635525E1
6.880957250E0,8.854087830E-1,3.509302368E0,1.056622742E1,1.116889939E1
6.890981250E0,9.601034546E-1,3.407663727E0,1.054497162E1,1.112341661E1
6.901005250E0,1.020428009E0,3.395389252E0,1.045890060E1,1.104348420E1
6.911030250E0,1.111438751E0,3.332669678E0,1.027373566E1,1.085779110E1
6.921054250E0,1.249152374E0,3.251239014E0,9.994266815E0,1.058377560E1
6.931078250E0,1.262175293E0,3.308569794E0,9.657167816E0,1.028594239E1
6.941103250E0,1.149309998E0,3.480262756E0,9.302854614E0,9.998812244E0
6.951127250E0,9.563612366E-1,3.579207001E0,9.016649780E0,9.748093292E0
6.961151250E0,7.433541870E-1,3.621419220E0,8.712033234E0,9.463972510E0
6.971175250E0,5.089416504E-1,3.733685760E0,8.410859528E0,9.216397830E0
6.981200250E0,3.329077148E-1,3.858825531E0,8.233029327E0,9.098578676E0
6.991224250E0,1.884580994E-1,3.895948334E0,8.033045197E0,8.929935330E0
7.001248250E0,7.529342651E-2,3.866759033E0,7.849975891E0,8.750978003E0
7.011273250E0,-1.541793823E-2,3.814817047E0,7.786358185E0,8.670665522E0
7.021297250E0,-7.589218140E-2,3.804638214E0,7.664960632E0,8.557607905E0
7.031321250E0,-3.367996216E-2,3.881129150E0,7.469167786E0,8.417408463E0
7.041346250E0,-2.170486450E-2,3.992497559E0,7.377408600E0,8.388484101E0
7.051370250E0,-4.161346436E-2,4.066593475E0,7.333400116E0,8.385563275E0
7.061394250E0,-1.781295776E-2,4.123475189E0,7.327562256E0,8.408123069E0
7.071418250E0,5.673202515E-2,4.128414917E0,7.305408325E0,8.391425329E0
7.081443250E0,6.421646118E-2,4.095184021E0,7.217840424E0,8.298908139E0
7.091467250E0,3.981719971E-2,4.078119507E0,7.258256378E0,8.325558826E0
7.101491250E0,4.670288086E-2,4.064946899E0,7.476053467E0,8.509838418E0
7.111516250E0,4.805007935E-2,4.068689117E0,7.677235107E0,8.688870976E0
7.121540250E0,7.185058594E-2,4.034859467E0,7.847730560E0,8.824518591E0
7.131564250E0,1.276844788E-1,3.995940399E0,8.064629517E0,9.001227263E0
7.141589250E0,2.308200073E-1,3.996539154E0,8.269553375E0,9.187552237E0
7.151613250E0,3.475772095E-1,4.065994720E0,8.388705597E0,9.328638945E0
7.161637250E0,4.528083801E-1,4.116140442E0,8.468339996E0,9.426581027E0
7.171661250E0,4.161346436E-1,4.225712585E0,8.533604279E0,9.531642927E0
7.181686250E0,4.074526978E-1,4.375700684E0,8.536448364E0,9.601235590E0
7.191710250E0,4.640350342E-1,4.489613800E0,8.511150970E0,9.633880393E0
7.201734250E0,3.677851868E-1,4.571194153E0,8.531957703E0,9.686350405E0
7.211759250E0,1.065783691E-1,4.659211121E0,8.681796112E0,9.853587720E0
7.221783250E0,-2.251318359E-1,4.755910034E0,8.845555573E0,1.004555713E1
7.231807250E0,-4.526586914E-1,4.783003693E0,8.893905029E0,1.010858897E1
7.241832250E0,-5.777984619E-1,4.721781006E0,8.954379272E0,1.013952539E1
7.251856250E0,-5.816903687E-1,4.637206879E0,9.100924530E0,1.023078094E1
7.261880250E0,-5.089416504E-1,4.612508240E0,9.210796051E0,1.031372958E1
7.271904250E0,-3.168910217E-1,4.568200378E0,9.403595123E0,1.045927702E1
7.281929250E0,-8.741821289E-2,4.387675781E0,9.748777313E0,1.069102426E1
7.291953250E0,1.233435059E-1,4.141587524E0,1.001163071E1,1.083516083E1
7.301977250E0,2.607577515E-1,4.019291840E0,1.013512390E1,1.090611929E1
7.312002250E0,2.305206299E-1,4.033512268E0,1.014425491E1,1.091916978E1
7.322026250E0,1.634600830E-1,4.075125732E0,9.997260590E0,1.079715649E1
7.332050250E0,5.598358154E-2,4.113895111E0,9.672885132E0,1.051151625E1
7.342075250E0,-7.364685059E-2,4.186494141E0,9.276659088E0,1.017784657E1
7.352099250E0,-3.254232788E-1,4.319118347E0,8.871302032E0,9.872217753E0
7.362123250E0,-6.471043396E-1,4.563260651E0,8.518934784E0,9.685780384E0
7.372148250E0,-9.544152832E-1,4.760101318E0,8.371940460E0,9.677750780E0
7.382172250E0,-1.250798950E0,4.883893890E0,8.430917816E0,9.823303557E0
7.392196250E0,-1.566791840E0,4.946014709E0,8.750503235E0,1.017296442E1
7.402224833E0,-1.699266357E0,4.910239105E0,9.317374420E0,1.066824354E1
7.412249833E0,-1.404678955E0,4.767885132E0,9.875413971E0,1.105575202E1
7.422273833E0,-7.542814636E-1,4.452490997E0,1.020368134E1,1.115834797E1
7.432297833E0,-2.718347168E-1,3.904330902E0,1.037507492E1,1.108872732E1
7.442322833E0,3.293151855E-3,3.408861237E0,1.065634003E1,1.118829426E1
7.452346833E0,1.393601990E-1,3.170407104E0,1.066921326E1,1.113117307E1
7.462370833E0,8.322692871E-2,3.163072357E0,1.030127838E1,1.077628367E1
7.472395833E0,-1.472937012E-1,3.318449249E0,9.950707397E0,1.049048991E1
7.482419833E0,-4.285588074E-1,3.462599487E0,9.524842987E0,1.014376122E1
7.492443833E0,-8.864566040E-1,3.555406494E0,9.071286163E0,9.783401929E0
7.502467833E0,-1.255289612E0,3.683540039E0,8.851094055E0,9.668820259E0
7.512492833E0,-1.403481445E0,3.884272614E0,8.672066345E0,9.605314602E0
7.522516833E0,-1.450483704E0,4.053271179E0,8.452472992E0,9.485631761E0
7.532540833E0,-1.383273468E0,4.104015656E0,8.357420654E0,9.412909751E0
7.542565833E0,-1.271755371E0,4.041146393E0,8.460556183E0,9.461989052E0
7.552589833E0,-1.172960815E0,3.933669891E0,8.612190857E0,9.540410224E0
7.562613833E0,-1.055006104E0,3.846251678E0,8.798553314E0,9.660291418E0
7.572638833E0,-9.066645813E-1,3.775149536E0,8.965755615E0,9.770290090E0
7.582662833E0,-7.518864441E-1,3.709735565E0,8.992699585E0,9.756849748E0
7.592686833E0,-7.214996338E-1,3.601959686E0,8.871451721E0,9.601944123E0
7.602711833E0,-7.355703735E-1,3.479813690E0,8.902287598E0,9.586495270E0
7.612735833E0,-7.358697510E-1,3.377127228E0,8.895701294E0,9.543583924E0
7.622759833E0,-7.170089722E-1,3.324137421E0,8.879534912E0,9.508424250E0
7.632784833E0,-7.394622803E-1,3.291355591E0,9.010213165E0,9.621006568E0
7.642808833E0,-7.584727478E-1,3.297941895E0,9.023385773E0,9.637073853E0
7.652832833E0,-7.177574158E-1,3.345243530E0,8.867260437E0,9.504427265E0
7.662856833E0,-6.282435608E-1,3.381168823E0,8.645421753E0,9.304316733E0
7.672881833E0,-5.077441406E-1,3.445684662E0,8.421038361E0,9.112871884E0
7.682905833E0,-4.279600525E-1,3.539988556E0,8.198600922E0,8.940454455E0
7.692929833E0,-4.797523499E-1,3.654949493E0,7.979306946E0,8.789661965E0
7.702954833E0,-5.421725464E-1,3.734434204E0,7.791896667E0,8.657574924E0
7.712978833E0,-6.002517700E-1,3.773053894E0,7.660320282E0,8.560183684E0
7.723002833E0,-6.837780762E-1,3.770060120E0,7.571405182E0,8.485698686E0
7.733027833E0,-7.599696350E-1,3.763324127E0,7.602241058E0,8.516703085E0
7.743051833E0,-8.225395203E-1,3.779640198E0,7.734865265E0,8.648143844E0
7.753075833E0,-8.693920898E-1,3.827690277E0,7.902516632E0,8.823651431E0
7.763100833E0,-8.711883545E-1,3.829336853E0,8.190368042E0,9.083221815E0
7.773124833E0,-8.110134888E-1,3.800596619E0,8.505163422E0,9.350940186E0
7.783148833E0,-7.533833313E-1,3.798800354E0,8.632249146E0,9.461194210E0
7.793172833E0,-7.596702576E-1,3.853287048E0,8.690028992E0,9.536326539E0
7.803197833E0,-8.427474976E-1,3.968996429E0,8.679401093E0,9.580979038E0
7.813221833E0,-9.282197571E-1,4.053121490E0,8.573271790E0,9.528398339E0
7.823245833E0,-9.898915100E-1,4.080813904E0,8.464597778E0,9.448933425E0
7.833270833E0,-1.059646454E0,4.077820129E0,8.469836884E0,9.459894526E0
7.843294833E0,-1.060843964E0,4.036356354E0,8.609945526E0,9.568109766E0
7.853318833E0,-1.007704468E0,3.973487091E0,8.908125458E0,9.806057675E0
7.863343833E0,-9.223818970E-1,3.891158295E0,9.254505157E0,1.008155578E1
7.873367833E0,-8.743318176E-1,3.812571716E0,9.595496063E0,1.036212835E1
7.883391833E0,-8.683442688E-1,3.783681793E0,9.835746460E0,1.057412777E1
7.893416833E0,-7.816744995E-1,3.804787903E0,9.883347473E0,1.061922706E1
7.903440833E0,-7.095245361E-1,3.784579926E0,9.783804474E0,1.051424273E1
7.913464833E0,-7.107220459E-1,3.772305450E0,9.584269409E0,1.032441932E1
7.923489833E0,-8.056246948E-1,3.827091522E0,9.431287537E0,1.021003650E1
7.933513833E0,-8.952882385E-1,3.978576508E0,9.320368195E0,1.017348885E1
7.943537833E0,-9.256750488E-1,4.179758148E0,9.292825470E0,1.023151297E1
7.953562833E0,-9.247769165E-1,4.307891693E0,9.420809326E0,1.040023036E1
7.963586833E0,-9.027726746E-1,4.362378387E0,9.501192169E0,1.049371223E1
7.973610833E0,-8.843609619E-1,4.403842163E0,9.480535126E0,1.049078007E1
7.983634833E0,-9.286688232E-1,4.465214539E0,9.411828003E0,1.045863629E1
7.993659833E0,-1.022224274E0,4.451742554E0,9.286239166E0,1.034877732E1
8.003683833E0,-1.091530151E0,4.418960724E0,9.177265778E0,1.024406458E1
8.013707833E0,-1.102756805E0,4.474495239E0,9.068442078E0,1.017220831E1
8.023732833E0,-1.008901978E0,4.513563995E0,8.968150635E0,1.009048408E1
8.033756833E0,-9.059161377E-1,4.544250183E0,8.998387756E0,1.012135742E1
8.043780833E0,-8.776249695E-1,4.582121429E0,9.066346436E0,1.019630816E1
8.053805833E0,-8.625064087E-1,4.598886566E0,9.123377838E0,1.025327743E1
8.063829833E0,-8.180488586E-1,4.581372986E0,9.254654846E0,1.035890046E1
8.073853833E0,-8.372090149E-1,4.497547302E0,9.552685089E0,1.059163080E1
8.083878833E0,-8.334667969E-1,4.353995819E0,9.826465759E0,1.078013802E1
8.093902833E0,-7.949967957E-1,4.243675232E0,9.891879730E0,1.079305721E1
8.103926833E0,-7.503895569E-1,4.169279938E0,9.863887939E0,1.073509501E1
8.113951833E0,-6.735992432E-1,4.161795502E0,9.834548950E0,1.070012293E1
8.123975833E0,-6.053411865E-1,4.152065735E0,9.729018402E0,1.059527663E1
8.133999833E0,-5.584886169E-1,4.120331726E0,9.638307037E0,1.049695221E1
8.144024833E0,-6.227050781E-1,4.143982544E0,9.545050964E0,1.042441130E1
8.154048833E0,-7.185058594E-1,4.132007446E0,9.573342133E0,1.045172789E1
8.164072833E0,-8.241860962E-1,4.042044525E0,9.700577545E0,1.054128130E1
8.174097833E0,-8.599617004E-1,3.896996155E0,9.993967438E0,1.076129631E1
8.184121833E0,-7.297325134E-1,3.686533813E0,1.035471725E1,1.101558943E1
8.194145833E0,-4.629872131E-1,3.344644775E0,1.047686325E1,1.100752785E1
8.204169833E0,-2.245330811E-1,3.040028229E0,1.055395294E1,1.098535887E1
8.214194833E0,-5.239105225E-3,2.875220947E0,1.059631485E1,1.097947227E1
8.224218833E0,3.891906738E-2,2.874622192E0,1.029469208E1,1.068857579E1
8.234242833E0,-1.927990723E-1,2.976560211E0,9.957593079E0,1.039474589E1
8.244267833E0,-4.893324280E-1,3.144061890E0,9.799372101E0,1.030302213E1
8.254291833E0,-5.457650757E-1,3.277883606E0,9.486522675E0,1.005169105E1
8.264315833E0,-6.255491638E-1,3.363804932E0,9.129964142E0,9.750012339E0
8.274340833E0,-7.475454712E-1,3.406017151E0,9.025780792E0,9.675975195E0
8.284364833E0,-8.216413879E-1,3.414100342E0,9.021439819E0,9.680782620E0
8.294388833E0,-7.857160950E-1,3.361709290E0,8.910071411E0,9.555512110E0
8.304413833E0,-6.111790466E-1,3.287014618E0,8.815468140E0,9.428174980E0
8.314437833E0,-4.113446045E-1,3.238814850E0,8.682993622E0,9.276502803E0
8.324461833E0,-2.197430420E-1,3.178939362E0,8.677155762E0,9.243753274E0
8.334486833E0,-1.025367737E-1,3.120261383E0,8.740623779E0,9.281435715E0
8.344510833E0,-3.951782227E-2,3.148702240E0,8.978179779E0,9.514389082E0
8.354534833E0,2.050735474E-2,3.158132629E0,9.173074493E0,9.701521423E0
8.364559833E0,1.302291870E-2,3.065475311E0,9.289682007E0,9.782407693E0
8.374583833E0,-6.526428223E-2,2.978805542E0,9.352251892E0,9.815404084E0
8.384607833E0,-2.315684509E-1,3.005899200E0,9.284442902E0,9.761656312E0
8.394632833E0,-4.815486145E-1,3.146007843E0,9.097182312E0,9.637841067E0
8.404653250E0,-7.762857056E-1,3.297193451E0,8.944799194E0,9.564702650E0
8.414677250E0,-1.032852173E0,3.415148163E0,8.776100006E0,9.473645122E0
8.424702250E0,-1.145418091E0,3.527564392E0,8.609646149E0,9.374523985E0
8.434726250E0,-1.186283112E0,3.583398285E0,8.582103424E0,9.375527189E0
8.444750250E0,-1.221160583E0,3.606150970E0,8.668473816E0,9.467734486E0
8.454775250E0,-1.240470428E0,3.622616730E0,8.738528137E0,9.540649499E0
8.464799250E0,-1.247056732E0,3.560645599E0,8.772657166E0,9.549495344E0
8.474823250E0,-1.266067200E0,3.452869720E0,8.719218292E0,9.463086341E0
8.484848250E0,-1.307980042E0,3.399879913E0,8.579708405E0,9.321018803E0
8.494872250E0,-1.361568604E0,3.427722015E0,8.459059296E0,9.228154282E0
8.504896250E0,-1.427731018E0,3.467389526E0,8.293204193E0,9.101562601E0
8.514920250E0,-1.391955414E0,3.497327271E0,8.278983765E0,9.094526381E0
8.524945250E0,-1.260828094E0,3.459605713E0,8.441096649E0,9.209270971E0
8.534969250E0,-1.163231049E0,3.343297577E0,8.638536072E0,9.335686939E0
8.544993250E0,-1.078806610E0,3.276536407E0,8.839418335E0,9.488668559E0
8.555018250E0,-1.019230499E0,3.242407379E0,8.987610168E0,9.608807052E0
8.565042250E0,-1.016685791E0,3.250789948E0,8.994346161E0,9.617668540E0
8.575066250E0,-1.031804352E0,3.298690338E0,8.988657990E0,9.630262230E0
8.585091250E0,-1.075812836E0,3.303779755E0,8.929381256E0,9.581554338E0
8.595115250E0,-1.107247467E0,3.225791931E0,8.832832031E0,9.468402834E0
8.605139250E0,-1.134041748E0,3.135529633E0,8.930878143E0,9.533004834E0
8.615164250E0,-1.183888092E0,3.059936829E0,9.206754456E0,9.773900553E0
8.625188250E0,-1.175954590E0,3.017275543E0,9.439969482E0,9.979972181E0
8.635212250E0,-1.187480621E0,2.924019470E0,9.624086609E0,1.012832874E1
8.645237250E0,-1.263223114E0,2.770588531E0,9.818681946E0,1.028000042E1
8.655261250E0,-1.297052765E0,2.648292847E0,9.914482727E0,1.034373089E1
8.665285250E0,-1.343306580E0,2.645149384E0,9.933642883E0,1.036718615E1
8.675310250E0,-1.431622925E0,2.701881409E0,9.987381134E0,1.044497435E1
8.685334250E0,-1.553319855E0,2.717449036E0,1.003513184E1,1.051195523E1
8.695358250E0,-1.572180634E0,2.637215881E0,1.010069550E1,1.055702179E1
8.705383250E0,-1.472637634E0,2.539169769E0,1.019425095E1,1.060843047E1
8.715407250E0,-1.358724518E0,2.423161011E0,1.026789780E1,1.063708450E1
8.725431250E0,-1.322499847E0,2.302212524E0,1.035142410E1,1.068649472E1
8.735456250E0,-1.377285919E0,2.276765442E0,1.040366547E1,1.073856753E1
8.745480250E0,-1.416055298E0,2.264490967E0,1.050754944E1,1.084166625E1
8.755504250E0,-1.380279694E0,2.130070496E0,1.058868073E1,1.088864233E1
8.765529250E0,-1.264270935E0,1.919907532E0,1.053688843E1,1.078473197E1
8.775553250E0,-1.132395172E0,1.742526398E0,1.042821442E1,1.063326728E1
8.785577250E0,-9.777667236E-1,1.631008301E0,1.034528687E1,1.051861094E1
8.795602250E0,-7.932005310E-1,1.517095184E0,1.032373169E1,1.046471122E1
8.805626250E0,-5.593867493E-1,1.379082184E0,1.031100815E1,1.041785344E1
8.815650250E0,-3.050656128E-1,1.250798950E0,1.034049683E1,1.042033769E1
8.825675250E0,-2.152523804E-1,1.193468170E0,1.042896286E1,1.049923646E1
8.835699250E0,-1.817221069E-1,1.196911011E0,1.043704605E1,1.050702380E1
8.845723250E0,-1.863624573E-1,1.158590698E0,1.032133667E1,1.038783202E1
8.855748250E0,-2.279759216E-1,1.104403381E0,1.008497818E1,1.014783054E1
8.865772250E0,-3.870950317E-1,1.200653229E0,9.726922760E0,9.808386061E0
8.875796250E0,-6.405180359E-1,1.502874756E0,9.404343567E0,9.545185897E0
8.885821250E0,-7.559280396E-1,1.756148071E0,9.173074493E0,9.370206983E0
8.895845250E0,-7.741900635E-1,1.906435547E0,8.961264954E0,9.194462264E0
8.905869250E0,-7.632627869E-1,2.094294891E0,8.822353821E0,9.099591645E0
8.915894250E0,-7.325765991E-1,2.227517853E0,8.687184906E0,8.998093456E0
8.925918250E0,-7.185058594E-1,2.285297699E0,8.748108215E0,9.070183768E0
8.935942250E0,-7.828720093E-1,2.384241943E0,8.751101990E0,9.103806032E0
8.945967250E0,-1.030457153E0,2.476001129E0,8.704099731E0,9.107896336E0
8.955991250E0,-1.327289886E0,2.492766266E0,8.720864868E0,9.166736941E0
8.966015250E0,-1.607058105E0,2.502645721E0,8.718619537E0,9.211959509E0
8.976040250E0,-1.844015350E0,2.568508759E0,8.639583893E0,9.200002157E0
8.986064250E0,-2.026934967E0,2.645299072E0,8.587791595E0,9.211744516E0
8.996088250E0,-2.149979095E0,2.657573547E0,8.621172180E0,9.274142388E0
9.006113250E0,-2.197430420E0,2.622995453E0,8.751850433E0,9.397004395E0
9.016137250E0,-2.173180847E0,2.611020355E0,9.014105072E0,9.632976307E0
9.026161250E0,-2.202220459E0,2.608775024E0,9.163344727E0,9.778669064E0
9.036186250E0,-2.261048126E0,2.589764557E0,9.233548737E0,9.852798656E0
9.046210250E0,-2.358196106E0,2.628384247E0,9.364825745E0,1.000846911E1
9.056234250E0,-2.410587158E0,2.707569580E0,9.434580688E0,1.010708545E1
9.066259250E0,-2.435734863E0,2.744842072E0,9.444310455E0,1.013222396E1
9.076283250E0,-2.480192413E0,2.760260010E0,9.468260651E0,1.016948128E1
9.086307250E0,-2.485132141E0,2.839595032E0,9.535620575E0,1.025510807E1
9.096332250E0,-2.427801361E0,2.973117371E0,9.570797424E0,1.031182863E1
9.106356250E0,-2.277064819E0,3.110232239E0,9.479786682E0,1.023351964E1
9.116380250E0,-2.066153412E0,3.149151306E0,9.452243958E0,1.017502136E1
9.126405250E0,-1.820813599E0,3.050506439E0,9.532626801E0,1.017309812E1
9.136429250E0,-1.517843628E0,2.921923828E0,9.745184784E0,1.028640436E1
9.146453250E0,-1.297950897E0,2.837050323E0,9.896071014E0,1.037621090E1
9.156478250E0,-1.180744629E0,2.802472229E0,1.005923172E1,1.050886061E1
9.166502250E0,-1.127156067E0,2.803070984E0,1.020592667E1,1.064371302E1
9.176526250E0,-1.155746613E0,2.766097870E0,1.020248383E1,1.063380101E1
9.186551250E0,-1.196012878E0,2.735112305E0,1.015054184E1,1.058039630E1
9.196575250E0,-1.302291870E0,2.741249542E0,1.005548950E1,1.050348905E1
9.206599250E0,-1.456620941E0,2.741099854E0,9.915081482E0,1.038962048E1
9.216624250E0,-1.589544525E0,2.750380554E0,9.653724976E0,1.016295483E1
9.226648250E0,-1.711840210E0,2.801574097E0,9.347611542E0,9.907424280E0
9.236672250E0,-1.767973480E0,2.882705383E0,9.125772858E0,9.732186332E0
9.246697250E0,-1.773062897E0,2.984044647E0,8.973090363E0,9.621051146E0
9.256721250E0,-1.719174957E0,3.112776947E0,8.863069153E0,9.549813488E0
9.266745250E0,-1.670077057E0,3.187022552E0,8.883875885E0,9.584858938E0
9.276770250E0,-1.611997833E0,3.198847961E0,9.029972076E0,9.714502612E0
9.286794250E0,-1.559756470E0,3.131188660E0,9.086404724E0,9.736525740E0
9.296818250E0,-1.574126587E0,3.055895233E0,9.037606201E0,9.669265538E0
9.306843250E0,-1.649869080E0,3.047063599E0,9.038055267E0,9.679520007E0
9.316867250E0,-1.731898499E0,3.045417023E0,9.040150909E0,9.695275433E0
9.326891250E0,-1.751058655E0,3.058739319E0,9.008566589E0,9.673487718E0
9.336916250E0,-1.732048187E0,3.078797607E0,8.961564331E0,9.632685030E0
9.346940250E0,-1.638792114E0,3.107837219E0,9.009913788E0,9.670720668E0
9.356964250E0,-1.531165924E0,3.139271851E0,9.059011688E0,9.709026192E0
9.366989250E0,-1.513652344E0,3.133733368E0,9.095236359E0,9.738313646E0
9.377013250E0,-1.524280243E0,3.103496246E0,9.137298889E0,9.769613616E0
9.387037250E0,-1.593286743E0,3.129991150E0,9.165290680E0,9.815190293E0
9.397062250E0,-1.695673828E0,3.247496796E0,9.176966400E0,9.881207289E0
9.407089833E0,-1.826052704E0,3.379821625E0,9.210646362E0,9.979662775E0
9.417113833E0,-1.892065430E0,3.464096375E0,9.128916321E0,9.945702010E0
9.427138833E0,-1.900597687E0,3.526516571E0,8.946595459E0,9.802558901E0
9.437162833E0,-1.883233795E0,3.564537506E0,8.820856934E0,9.698454217E0
9.447186833E0,-1.859433289E0,3.596121826E0,8.737031250E0,9.629397666E0
9.457211833E0,-1.812431030E0,3.653153229E0,8.670419769E0,9.581576787E0
9.467235833E0,-1.737287292E0,3.685485992E0,8.718170471E0,9.623277534E0
9.477259833E0,-1.685195618E0,3.710034943E0,8.782237244E0,9.681525425E0
9.487284833E0,-1.659898224E0,3.754941559E0,8.945547638E0,9.842645517E0
9.497308833E0,-1.652413788E0,3.783083038E0,9.112600250E0,1.000408276E1
9.507332833E0,-1.574425964E0,3.769461365E0,9.119336243E0,9.992494664E0
9.517357833E0,-1.475332031E0,3.744613037E0,9.061107330E0,9.914756550E0
9.527381833E0,-1.466051331E0,3.755839691E0,8.970096588E0,9.834544783E0
9.537405833E0,-1.442400513E0,3.851191406E0,8.929680634E0,9.831143916E0
9.547430833E0,-1.408870239E0,3.996988220E0,8.924142151E0,9.879329092E0
9.557454833E0,-1.288670197E0,4.114344177E0,9.023086395E0,1.000022935E1
9.567478833E0,-1.127156067E0,4.171824646E0,9.146280212E0,1.011578190E1
9.577503833E0,-1.033001862E0,4.160897369E0,9.233997803E0,1.018071094E1
9.587527833E0,-9.900411987E-1,4.163591766E0,9.221573639E0,1.016627259E1
9.597551833E0,-9.044192505E-1,4.165388031E0,9.182804260E0,1.012384935E1
9.607576833E0,-8.053253174E-1,4.163741455E0,9.119036865E0,1.005694412E1
9.617600833E0,-8.039781189E-1,4.216132507E0,9.004524994E0,9.975150350E0
9.627624833E0,-8.663983154E-1,4.325704651E0,9.022936707E0,1.004369223E1
9.637649833E0,-8.551716614E-1,4.400848389E0,9.148375854E0,1.018781458E1
9.647673833E0,-7.191046143E-1,4.289330292E0,9.345665588E0,1.030810027E1
9.657697833E0,-4.562512207E-1,4.055067444E0,9.701775055E0,1.052502619E1
9.667722833E0,-6.735992432E-2,3.779640198E0,1.001896545E1,1.070840260E1
9.677746833E0,2.883004761E-1,3.543730774E0,1.016027161E1,1.076439799E1
9.687770833E0,4.587959290E-1,3.385659485E0,1.024319916E1,1.079797726E1
9.697795833E0,5.572911072E-1,3.294648743E0,1.017045044E1,1.070529523E1
9.707819833E0,5.987548828E-1,3.242856445E0,9.959539032E0,1.049128415E1
9.717843833E0,5.270539856E-1,3.227139130E0,9.749974823E0,1.028368718E1
9.727868833E0,4.405339050E-1,3.199147339E0,9.623487854E0,1.015086855E1
9.737892833E0,4.162843323E-1,3.131188660E0,9.404193878E0,9.920508937E0
9.747916833E0,4.463717651E-1,3.052452393E0,9.140442352E0,9.646989155E0
9.757941833E0,4.971162415E-1,2.993774414E0,9.026828613E0,9.523310591E0
9.767965833E0,5.936654663E-1,2.960693207E0,8.900191956E0,9.398487101E0
9.777990833E0,6.701564026E-1,2.970722351E0,8.806037750E0,9.317757335E0
9.788014833E0,6.441105652E-1,3.037034454E0,8.801696777E0,9.333183961E0
9.798038833E0,5.965095520E-1,3.128045197E0,8.844807129E0,9.400590596E0
9.808062833E0,5.757028198E-1,3.196452942E0,8.901239777E0,9.475273859E0
9.818087833E0,6.280938721E-1,3.183579712E0,8.872798920E0,9.447552189E0
9.828111833E0,7.051835632E-1,3.139122162E0,8.904981995E0,9.468372412E0
9.838136833E0,7.042854309E-1,3.102149048E0,9.038654022E0,9.582098581E0
9.848160833E0,6.988966370E-1,3.069816284E0,9.364226990E0,9.879320606E0
9.858184833E0,7.384144592E-1,2.924917603E0,9.666747894E0,1.012652032E1
9.868209833E0,7.132667542E-1,2.789598999E0,9.920619965E0,1.033001997E1
9.878233833E0,7.345225525E-1,2.702180786E0,1.012165192E1,1.050186373E1
9.888257833E0,7.405101013E-1,2.655926971E0,1.033480865E1,1.069628782E1
9.898282833E0,8.155041504E-1,2.572999420E0,1.039977356E1,1.074433167E1
9.908306833E0,8.545729065E-1,2.511926422E0,1.017973114E1,1.051983818E1
9.918330833E0,8.283773804E-1,2.527943115E0,9.896071014E0,1.024738635E1
9.928355833E0,6.384223938E-1,2.743494873E0,9.637857971E0,1.004104843E1
9.938379833E0,4.140390015E-1,2.999163208E0,9.324409790E0,9.803623115E0
9.948403833E0,2.323168945E-1,3.172203369E0,9.008416901E0,9.553450707E0
9.958428833E0,1.095721436E-1,3.257376251E0,8.783135376E0,9.368349541E0
9.968452833E0,9.624984741E-2,3.273991699E0,8.735384674E0,9.329267446E0
9.978476833E0,9.415420532E-2,3.281925201E0,8.789272614E0,9.382494930E0
9.988501833E0,5.239105225E-2,3.323838043E0,8.837622070E0,9.442150603E0
9.998525833E0,6.137237549E-3,3.347488861E0,8.801996155E0,9.417051325E0
1.000854983E1,-4.505630493E-2,3.390299835E0,8.798553314E0,9.429247238E0
1.001857483E1,-3.308120728E-2,3.457659760E0,8.781937866E0,9.438163914E0
1.002859883E1,2.320175171E-2,3.563489685E0,8.612490234E0,9.320621497E0
1.003862283E1,4.326004028E-2,3.659140778E0,8.465196533E0,9.222295539E0
1.004864783E1,1.056802368E-1,3.651806030E0,8.469088440E0,9.223465433E0
1.005867183E1,1.722917175E-1,3.604504395E0,8.538693695E0,9.269920517E0
1.006869583E1,2.498304749E-1,3.592379608E0,8.607400818E0,9.330324504E0
1.007872083E1,2.339634705E-1,3.606600037E0,8.822054443E0,9.533674388E0
1.008874483E1,1.914518738E-1,3.642675018E0,9.076225891E0,9.781800015E0
1.009876883E1,1.498384094E-1,3.676205292E0,9.215286713E0,9.922622944E0
1.010879383E1,1.737886047E-1,3.710184631E0,9.342372437E0,1.005363592E1
1.011881783E1,2.324665833E-1,3.726800079E0,9.394913177E0,1.010977117E1
1.012884183E1,2.460882568E-1,3.746409302E0,9.342971191E0,1.006912373E1
1.013886683E1,2.941383362E-1,3.787723389E0,9.353748779E0,1.009583984E1
1.014889083E1,4.125421143E-1,3.846401367E0,9.418264618E0,1.018178289E1
1.015891483E1,4.311035156E-1,3.905977478E0,9.493707733E0,1.027487211E1
1.016893983E1,4.079017639E-1,3.945345612E0,9.589957581E0,1.037783322E1
1.017896383E1,3.135978699E-1,3.954776001E0,9.631121979E0,1.041619448E1
1.018898883E1,1.678010559E-1,3.952979736E0,9.633516998E0,1.041435815E1
1.019901283E1,1.302291870E-2,3.945644989E0,9.561816101E0,1.034391662E1
1.020903683E1,-7.424560547E-2,3.924239502E0,9.448801117E0,1.023156931E1
1.021906183E1,-9.145980835E-2,3.842509460E0,9.325756989E0,1.008677289E1
1.022908583E1,-3.158432007E-2,3.769461365E0,9.220525818E0,9.961321845E0
1.023910983E1,1.092727661E-2,3.787274323E0,9.163793793E0,9.915577788E0
1.024913483E1,2.993774414E-4,3.834725647E0,9.178612976E0,9.947464855E0
1.025915883E1,3.173400879E-2,3.831282806E0,9.261989594E0,1.002318244E1
1.026918283E1,1.050814819E-1,3.782783661E0,9.307644653E0,1.004752424E1
1.027920783E1,1.315763855E-1,3.741918640E0,9.264833679E0,9.992817949E0
1.028923183E1,1.375639343E-1,3.694018250E0,9.193881226E0,9.909195056E0
1.029925583E1,5.433700562E-2,3.689527588E0,9.117240601E0,9.835631271E0
1.030928083E1,1.646575928E-2,3.697012024E0,9.082961884E0,9.806547079E0
1.031930483E1,-8.247848511E-2,3.630250854E0,9.060508575E0,9.761062422E0
1.032932883E1,-3.772155762E-1,3.565884705E0,9.082363129E0,9.764586285E0
1.033935383E1,-8.391549683E-1,3.640130310E0,9.363029480E0,1.008072670E1
1.034937783E1,-1.140478363E0,3.720213776E0,9.813293152E0,1.055658107E1
1.035940183E1,-1.340163116E0,3.656147003E0,9.960437164E0,1.069456669E1
1.036942683E1,-1.287772064E0,3.446732483E0,9.879605255E0,1.054252919E1
1.037945083E1,-1.215322723E0,3.279679871E0,9.759554901E0,1.036736327E1
1.038947583E1,-1.121318207E0,3.364403687E0,9.815837860E0,1.043682134E1
1.039949983E1,-1.005608826E0,3.581901398E0,1.016131943E1,1.082098328E1
1.040951946E1,-8.198451233E-1,3.439846802E0,1.074989548E1,1.131657832E1
1.041954446E1,-6.625222778E-1,2.985092468E0,1.062535446E1,1.105657588E1
1.042956846E1,-6.972500610E-1,2.646795959E0,1.020996826E1,1.057048430E1
1.043959246E1,-8.081694031E-1,2.491868134E0,9.586963806E0,9.938431446E0
1.044961746E1,-7.676037598E-1,2.660417633E0,9.028475189E0,9.443537566E0
1.045964146E1,-6.164181519E-1,3.196902008E0,8.670419769E0,9.261551315E0
1.046966546E1,-4.602928162E-1,3.447331238E0,8.493338013E0,9.177840309E0
1.047969046E1,-6.572831726E-1,3.341351624E0,8.578959961E0,9.230124910E0
1.048971446E1,-5.557942200E-1,2.880609741E0,8.389903107E0,8.888042182E0
1.049973846E1,2.091151428E-1,2.462828522E0,8.568332062E0,8.917710905E0
1.050976346E1,1.678010559E-1,2.634072418E0,7.822433167E0,8.255722582E0
1.051978746E1,-4.968168640E-1,2.667003937E0,6.716083832E0,7.243308569E0
1.052981146E1,-1.183738403E0,3.426674194E0,7.050488434E0,7.927970724E0
1.053983646E1,-1.046773224E0,4.042643280E0,7.369475098E0,8.470410975E0
1.054986046E1,-5.586383057E-1,4.140689392E0,7.198829956E0,8.323493145E0
1.055988446E1,-2.245330811E-2,4.031566315E0,6.734495544E0,7.849042065E0
1.056990946E1,4.682263184E-1,3.888463898E0,6.083648987E0,7.235341897E0
1.057993346E1,5.742059326E-1,3.802692261E0,5.832171936E0,6.986015343E0
1.058995746E1,2.028282166E-1,3.725602570E0,6.257287903E0,7.285252617E0
1.059998246E1,-3.847000122E-1,3.753893738E0,7.159162445E0,8.092794277E0
1.061000646E1,-8.054750061E-1,3.667523346E0,7.599696350E0,8.476727086E0
1.062003146E1,-6.228547668E-1,3.314557343E0,7.454947357E0,8.182327208E0
1.063005546E1,-4.655319214E-2,2.727478180E0,7.149582367E0,7.652308962E0
1.064007946E1,4.596940613E-1,2.132315826E0,7.243437195E0,7.564751933E0
1.065010446E1,9.235794067E-1,1.721569977E0,7.491770782E0,7.742314354E0
1.066012846E1,1.118174744E0,1.718875580E0,7.669002228E0,7.938415660E0
1.067015246E1,1.186283112E0,2.031725006E0,7.843090210E0,8.188359919E0
1.068017746E1,1.127904510E0,2.507435760E0,8.477920074E0,8.912605201E0
1.069020146E1,1.057251434E0,3.022963715E0,9.306596832E0,9.842196646E0
1.070022546E1,1.100810852E0,3.596570892E0,1.051593201E1,1.116834512E1
1.071025046E1,1.538350983E0,4.057163086E0,1.207673630E1,1.283256232E1
1.072027446E1,2.023791504E0,4.561763763E0,1.456366470E1,1.539499108E1
1.073029846E1,2.450254669E0,5.185067596E0,1.610126724E1,1.709208825E1
1.074032346E1,2.802921295E0,5.712870026E0,1.570324493E1,1.694358738E1
1.075034746E1,2.530936890E0,6.377038879E0,1.592598175E1,1.734096771E1
1.076037146E1,2.201322327E0,7.210805054E0,1.563528625E1,1.735810202E1
1.077039646E1,2.087858276E0,8.332422638E0,1.585637650E1,1.803366559E1
1.078042046E1,2.740800476E0,9.287286987E0,1.687994797E1,1.946017292E1
1.079044546E1,3.244802399E0,9.611063690E0,1.756207947E1,2.028122095E1
1.080046946E1,3.238964539E0,9.918374634E0,1.751088593E1,2.038372323E1
1.081049346E1,2.911295929E0,1.038824753E1,1.737496857E1,2.045191589E1
1.082051846E1,2.102378082E0,1.117381393E1,1.647503998E1,2.001751867E1
1.083054246E1,6.530918884E-1,1.254077133E1,1.507335480E1,1.961895765E1
1.084056646E1,-6.183641052E-1,1.343456268E1,1.445334412E1,1.974256834E1
1.085059146E1,-1.429676971E0,1.382345398E1,1.405487274E1,1.976540675E1
1.086061546E1,-1.406175842E0,1.392524231E1,1.331181793E1,1.931564652E1
1.087063946E1,-1.112037506E0,1.395098877E1,1.253598129E1,1.878876106E1
1.088066446E1,-1.284179535E0,1.395368317E1,1.155028107E1,1.815938831E1
1.089068846E1,-1.696122894E0,1.377884674E1,1.047087570E1,1.738886679E1
1.090071246E1,-1.796863403E0,1.330193848E1,9.312434692E0,1.633682115E1
1.091073746E1,-1.270707550E0,1.253523285E1,7.655530243E0,1.474292724E1
1.092076146E1,-4.059558105E-1,1.117920273E1,5.860612793E0,1.262878284E1
1.093078546E1,6.810836792E-1,9.402696991E0,4.339775391E0,1.037825786E1
1.094081046E1,1.552421722E0,7.638316040E0,3.161575470E0,8.411268905E0
1.095083446E1,2.532134399E0,5.349126434E0,3.029100952E0,6.648331430E0
1.096085846E1,3.350931702E0,2.685116272E0,4.696034546E0,6.363280060E0
1.097088346E1,3.668870544E0,9.216334534E-1,7.019652557E0,7.974054259E0
1.098090746E1,3.771856384E0,-1.017883301E-2,7.547155609E0,8.437212927E0
1.099093246E1,3.488046570E0,-1.246607666E0,6.607559509E0,7.574981334E0
1.100095646E1,3.415597229E0,-1.770817566E0,5.392087097E0,6.623949165E0
1.101098046E1,3.574416962E0,-1.957928467E0,4.339775391E0,5.953452019E0
1.102100546E1,3.646117859E0,-2.137854309E0,3.297492828E0,5.360788696E0
1.103102946E1,3.601360931E0,-1.906884613E0,2.350711670E0,4.704450535E0
1.104105346E1,3.163671112E0,-1.323547668E0,1.256337433E0,3.652256437E0
1.105107846E1,2.525099030E0,-6.493496704E-1,2.296224976E-1,2.617347244E0
1.106110246E1,2.023641815E0,4.834945679E-2,-2.670446777E-1,2.041758244E0
1.107112646E1,1.582060089E0,5.604345703E-1,-2.924917603E-1,1.703687901E0
1.108115146E1,9.222322083E-1,9.310638428E-1,-3.465293884E-1,1.355534855E0
1.109117546E1,2.757266235E-1,1.116228790E0,-4.486170959E-1,1.234199814E0
1.110119946E1,-1.462458801E-1,1.322948914E0,-6.336323547E-1,1.474134202E0
1.111122446E1,-3.826043701E-1,1.601519623E0,-1.009650421E0,1.931487815E0
1.112124846E1,-4.881349182E-1,1.631906433E0,-1.065334625E0,2.009062510E0
1.113127346E1,-3.520678711E-1,1.387614441E0,-7.719447327E-1,1.626445294E0
1.114129746E1,-2.152523804E-1,1.302441559E0,-3.149450684E-1,1.357158059E0
1.115132146E1,-1.658551025E-1,1.437610474E0,1.130149841E-1,1.451552333E0
1.116134646E1,-1.508862305E-1,1.644480286E0,2.767744446E-1,1.674421141E0
1.117137046E1,-2.053729248E-1,1.705403595E0,3.397933960E-1,1.751010854E0
1.118139446E1,-3.218307495E-1,1.523681488E0,6.503974915E-1,1.687660275E0
1.119141946E1,-4.001179504E-1,1.116827545E0,1.251248016E0,1.724244686E0
1.120144346E1,-5.375321960E-1,9.011260986E-1,2.101479950E0,2.348869321E0
1.121146746E1,-6.256988525E-1,1.008452911E0,2.514022064E0,2.780068932E0
1.122149246E1,-6.161187744E-1,1.175355835E0,2.312241669E0,2.665994227E0
1.123151646E1,-4.885839844E-1,1.107546844E0,1.998943176E0,2.336909956E0
1.124154046E1,-4.008663940E-1,9.653425598E-1,1.849553833E0,2.124483350E0
1.125156546E1,-3.249742126E-1,1.127754822E0,1.748513947E0,2.105882285E0
1.126158946E1,-3.876937866E-2,1.521885223E0,1.693727875E0,2.277356321E0
1.127161446E1,2.644999695E-1,1.949994965E0,1.963167572E0,2.779652408E0
1.128163846E1,3.284170532E-1,2.418969727E0,2.539169769E0,3.522308251E0
1.129166246E1,2.083666992E-1,2.822979584E0,3.271446991E0,4.326083197E0
1.130168746E1,1.347198486E-1,3.379222870E0,3.824546814E0,5.105335932E0
1.131171146E1,-6.975494385E-2,4.213438110E0,4.484823761E0,6.153988189E0
1.132173546E1,-5.673202515E-2,5.159919891E0,5.618566132E0,7.628648451E0
1.133176046E1,-1.007405090E-1,6.555767212E0,7.299420776E0,9.811716265E0
1.134178446E1,-6.325845337E-1,8.434360657E0,9.238937531E0,1.252583608E1
1.135180846E1,-1.135089569E0,1.000983444E1,1.100301910E1,1.491816488E1
1.136183346E1,-1.453477478E0,1.129521149E1,1.284613632E1,1.716734160E1
1.137185746E1,-1.252295837E0,1.173080566E1,1.444585968E1,1.865108330E1
1.138188146E1,-1.221459961E-1,1.072160431E1,1.612072678E1,1.936092845E1
1.139190646E1,1.524130554E0,8.963210907E0,1.805335785E1,2.021350671E1
1.140193121E1,3.067421265E0,7.139553223E0,2.016277130E1,2.160832340E1
1.141195621E1,4.847369843E0,5.601351929E0,2.145847687E1,2.270106533E1
1.142198021E1,6.684200134E0,4.641847229E0,2.200094879E1,2.345777110E1
1.143200421E1,7.539671173E0,4.708159332E0,2.143153290E1,2.320181045E1
1.144202921E1,6.545438690E0,5.445525970E0,1.991488678E1,2.165869886E1
1.145205321E1,4.794679413E0,6.069278870E0,1.902648422E1,2.053855395E1
1.146207721E1,3.049159241E0,6.696923676E0,1.921239761E1,2.057334151E1
1.147210221E1,1.821112976E0,7.106921082E0,1.962898132E1,2.095523055E1
1.148212621E1,1.553319855E0,7.002887421E0,2.067814957E1,2.188696197E1
1.149215021E1,1.924996948E0,7.046746216E0,2.154799072E1,2.275254161E1
1.150217521E1,3.534300385E0,6.564449158E0,2.271062302E1,2.390304729E1
1.151219921E1,5.384602661E0,5.290448456E0,2.373000320E1,2.490172369E1
1.152222321E1,6.647975464E0,4.735252991E0,2.277049850E1,2.418912567E1
1.153224821E1,7.047943726E0,5.347779236E0,2.033760773E1,2.217860549E1
1.154227221E1,5.669609985E0,7.151079254E0,1.747660721E1,1.971583656E1
1.155229721E1,3.310366058E0,9.144034882E0,1.576731171E1,1.852511851E1
1.156232121E1,1.246757355E0,1.057356216E1,1.391431503E1,1.752035341E1
1.157234521E1,1.058299255E-1,1.150043472E1,1.219738541E1,1.676446866E1
1.158237021E1,-6.689588928E-1,1.174143356E1,1.204320602E1,1.683293140E1
1.159239421E1,-1.420246582E0,1.140777740E1,1.225262054E1,1.680122602E1
1.160241821E1,-1.780247955E0,1.009919861E1,1.207643692E1,1.584308758E1
1.161244321E1,-1.037492523E0,7.487280121E0,1.200204163E1,1.418396128E1
1.162246721E1,2.564167786E-1,4.451293488E0,1.174742111E1,1.256509714E1
1.163249121E1,1.563199310E0,2.031425629E0,1.074001602E1,1.104165868E1
1.164251621E1,2.437830505E0,5.984555054E-1,9.089548187E0,9.429796011E0
1.165254021E1,2.923869781E0,-3.293151855E-3,6.854096832E0,7.451688985E0
1.166256421E1,3.022664337E0,2.604583740E-2,4.573289795E0,5.481984826E0
1.167258921E1,2.794389038E0,2.935395813E-1,2.614912262E0,3.838299326E0
1.168261321E1,2.470013580E0,5.053491211E-1,1.394799500E0,2.881286252E0
1.169263821E1,1.817370758E0,9.886940002E-1,3.411405945E-1,2.096837906E0
1.170266221E1,7.755372620E-1,1.671723633E0,-4.665797424E-1,1.901003578E0
1.171268621E1,-2.113604736E-1,2.307002563E0,-8.768765259E-1,2.477064093E0
1.172271121E1,-8.409512329E-1,2.661315765E0,-9.642947388E-1,2.952907876E0
1.173273521E1,-1.254541168E0,2.652484131E0,-5.635780334E-1,2.987836309E0
1.174275921E1,-1.491648102E0,2.486179962E0,1.407073975E-1,2.902740677E0
1.175278421E1,-1.557361450E0,2.339485016E0,8.051756287E-1,2.923503484E0
1.176280821E1,-1.521885223E0,2.186503143E0,9.842033386E-1,2.839997683E0
1.177283221E1,-1.177900543E0,1.924996948E0,8.000862122E-1,2.394410342E0
1.178285721E1,-5.758525085E-1,1.615141296E0,8.201445007E-1,1.900769455E0
1.179288121E1,-3.113525391E-2,1.450483704E0,1.017134857E0,1.771845280E0
1.180290621E1,3.261717224E-1,1.535207520E0,1.325194244E0,2.054115358E0
1.181293021E1,4.622387695E-1,1.566642151E0,1.663490753E0,2.331358787E0
1.182295421E1,4.352947998E-1,1.482068024E0,1.669478302E0,2.274459274E0
1.183297921E1,3.523672485E-1,1.308279419E0,1.529519348E0,2.043327471E0
1.184300321E1,1.619631958E-1,1.187779999E0,1.630110168E0,2.023440773E0
1.185302721E1,-1.068777466E-1,1.194366302E0,1.687590637E0,2.070240536E0
1.186305221E1,-2.411485291E-1,1.044677582E0,1.653012543E0,1.970267578E0
1.187307621E1,-3.427871704E-1,7.843688965E-1,1.634750519E0,1.845304004E0
1.188310021E1,-2.800675964E-1,6.411167908E-1,1.975442047E0,2.095671701E0
1.189312521E1,-1.392105103E-1,5.980064392E-1,2.282902679E0,2.364029592E0
1.190314921E1,8.741821289E-2,4.516108704E-1,2.556383972E0,2.597439765E0
1.191317421E1,4.978646851E-1,3.255729675E-1,2.691403198E0,2.756359588E0
1.192319821E1,8.512797546E-1,4.670288086E-1,2.645448761E0,2.818012114E0
1.193322221E1,1.315464478E0,8.181985474E-1,2.428699493E0,2.880707705E0
1.194324721E1,1.547931061E0,1.343755646E0,2.700234833E0,3.390138339E0
1.195327121E1,1.333277435E0,1.691482544E0,3.132535858E0,3.801515858E0
1.196329521E1,1.078357544E0,1.686991882E0,3.428320770E0,3.970161194E0
1.197332021E1,7.783813477E-1,2.000589752E0,4.008214874E0,4.546869622E0
1.198334421E1,4.104464722E-1,2.939287720E0,5.196893005E0,5.984611559E0
1.199336821E1,3.878434753E-1,4.067940674E0,6.477180634E0,7.658487634E0
1.200339321E1,9.321116638E-1,5.261558533E0,7.591613159E0,9.283610327E0
1.201341721E1,1.678609314E0,6.615942078E0,9.682914276E0,1.184682437E1
1.202344221E1,1.481768646E0,9.179660797E0,1.176927567E1,1.499925533E1
1.203346621E1,1.718426514E-1,1.290720932E1,1.321047867E1,1.847003868E1
1.204349021E1,-1.436412964E0,1.608031082E1,1.442011322E1,2.164669360E1
1.205351521E1,-1.770667877E0,1.672262512E1,1.603705078E1,2.323722129E1
1.206353921E1,-9.939331055E-2,1.546583862E1,1.833926331E1,2.399021930E1
1.207356321E1,2.653531952E0,1.241069183E1,2.114368149E1,2.466012511E1
1.208358821E1,4.901706848E0,1.031654663E1,2.376398254E1,2.636635604E1
1.209361221E1,5.908363495E0,1.073807007E1,2.534993454E1,2.815730969E1
1.210363621E1,5.810317383E0,1.236159393E1,2.643532745E1,2.975559326E1
1.211366121E1,5.268294525E0,1.402987473E1,2.765289551E1,3.145274141E1
1.212368521E1,5.465883636E0,1.481005234E1,2.925082260E1,3.323889524E1
1.213371021E1,6.463109894E0,1.447250427E1,3.005959076E1,3.398240966E1
1.214373421E1,7.460036774E0,1.401640274E1,2.921534637E1,3.325128807E1
1.215375821E1,7.470664673E0,1.447894089E1,2.684966583E1,3.140629101E1
1.216378321E1,5.618266754E0,1.568662949E1,2.354558670E1,2.884492883E1
1.217380721E1,3.068020020E0,1.615231110E1,2.020258850E1,2.604715882E1
1.218383121E1,6.954537964E-1,1.589574463E1,1.688428894E1,2.319994755E1
1.219385621E1,-9.761201477E-1,1.544218781E1,1.392374542E1,2.081549090E1
1.220388021E1,-1.720821533E0,1.469898331E1,1.134475845E1,1.864738269E1
1.221390421E1,-1.514550476E0,1.334280350E1,9.268276520E0,1.631640947E1
1.222392921E1,-1.219963074E-1,1.097772171E1,7.810308380E0,1.347316496E1
1.223395321E1,1.990410919E0,7.971223755E0,6.934329987E0,1.075114302E1
1.224397821E1,3.908372498E0,5.142705688E0,6.412066040E0,9.101504726E0
1.225400221E1,5.140460358E0,2.494861908E0,6.108497314E0,8.364353416E0
1.226402621E1,5.364843750E0,3.373983765E-1,6.218668213E0,8.219928252E0
1.227405121E1,4.659809875E0,-6.990463257E-1,6.245163116E0,7.823334084E0
1.228407521E1,3.561693420E0,-8.851094055E-1,5.767506409E0,6.836169165E0
1.229409921E1,2.381996613E0,-9.027726746E-1,4.818629608E0,5.450513523E0
1.230412421E1,1.321002960E0,-5.884263611E-1,3.246149597E0,3.553699707E0
1.231414821E1,6.984475708E-1,1.164578247E-1,1.929337921E0,2.055173046E0
1.232417221E1,1.368154907E-1,1.043779449E0,4.272116089E-1,1.136091447E0
1.233419721E1,-5.592370605E-1,1.673070831E0,-8.345146179E-1,1.951493465E0
1.234422121E1,-1.088835754E0,2.094594269E0,-1.167122955E0,2.633451052E0
1.235424621E1,-1.367107086E0,2.267634430E0,-1.287472687E0,2.944271321E0
1.236427021E1,-1.435215454E0,2.107766876E0,-1.573078766E0,2.996181137E0
1.237429421E1,-1.505419464E0,1.858235779E0,-1.670077057E0,2.916930810E0
1.238431921E1,-1.502575378E0,1.700014801E0,-1.587598572E0,2.769160941E0
1.239434321E1,-1.461860046E0,1.406026154E0,-1.279539185E0,2.398158640E0
1.240436721E1,-1.395997009E0,9.479786682E-1,-9.005273438E-1,1.912699846E0
1.241439221E1,-1.282832336E0,6.143225098E-1,-5.779481506E-1,1.535276853E0
1.242441621E1,-1.128353577E0,4.267625427E-1,-3.394940186E-1,1.253221549E0
1.243444021E1,-8.704399109E-1,7.948471069E-2,3.397933960E-2,8.747217004E-1
1.244446521E1,-6.496490479E-1,-1.504371643E-1,3.848497009E-1,7.699250081E-1
1.245448921E1,-3.873944092E-1,-2.237846375E-1,6.581813049E-1,7.958370577E-1
1.246451421E1,-8.023315430E-2,-3.155438232E-1,1.227447510E0,1.269894741E0
1.247453821E1,1.902543640E-1,-3.646417236E-1,1.961820374E0,2.004469877E0
1.248456221E1,2.433938599E-1,-2.859054565E-1,2.178120575E0,2.210246986E0
1.249458721E1,4.484674072E-1,-4.215234375E-1,2.447859650E0,2.524048710E0
1.250461121E1,6.782395935E-1,-5.167254639E-1,2.924468536E0,3.046232160E0
1.251463521E1,6.084846497E-1,-3.629951477E-1,3.088677063E0,3.168902814E0
1.252466021E1,5.260061646E-1,-2.378553772E-1,2.820734253E0,2.879201172E0
1.253468421E1,5.101391602E-1,-1.790277100E-1,2.421065369E0,2.480695548E0
1.254470921E1,3.899391174E-1,-3.143463135E-2,1.883383484E0,1.923583634E0
1.255473321E1,1.541793823E-1,3.141966248E-1,1.559008026E0,1.597810009E0
1.256475721E1,-1.218466187E-1,7.750881958E-1,1.307980042E0,1.525260666E0
1.257478221E1,-2.891986084E-1,1.348395996E0,8.978329468E-1,1.645573334E0
1.258480621E1,-2.821632385E-1,1.842069397E0,6.765930176E-1,1.982577582E0
1.259483021E1,5.822891235E-2,2.008223877E0,1.120420074E0,2.300368425E0
1.260485521E1,6.607260132E-1,2.162552948E0,2.054477692E0,3.055171469E0
1.261487921E1,8.696914673E-1,2.847378845E0,2.644251251E0,3.981958590E0
1.262490421E1,6.703060913E-1,3.640130310E0,2.944377136E0,4.729610518E0
1.263492821E1,7.108717346E-1,4.278702393E0,3.541335754E0,5.599436732E0
1.264495221E1,7.068301392E-1,5.265450439E0,4.370012512E0,6.879068726E0
1.265497721E1,9.145980835E-2,7.208709412E0,5.310806122E0,8.954245805E0
1.266500121E1,-1.148112488E0,9.956545258E0,6.002068634E0,1.168228503E1
1.267502521E1,-2.219135284E0,1.234048782E1,7.254364471E0,1.448578631E1
1.268505021E1,-2.312541046E0,1.352452560E1,9.376351776E0,1.661856226E1
1.269507421E1,-1.064735870E0,1.422192535E1,1.075812836E1,1.786432616E1
1.270509821E1,-2.290237427E-2,1.516795807E1,1.162302979E1,1.910922023E1
1.271512321E1,2.290237427E-1,1.549607574E1,1.234827164E1,1.981566622E1
1.272514721E1,9.629475403E-1,1.355700806E1,1.262579453E1,1.855075262E1
1.273517221E1,2.532733154E0,9.817783813E0,1.407418259E1,1.734607252E1
1.274519621E1,4.175267487E0,6.444548492E0,1.675959824E1,1.843499924E1
1.275522021E1,5.238506470E0,4.817132721E0,1.995949402E1,2.119028360E1
1.276524521E1,5.200485535E0,5.774841156E0,2.180216217E1,2.314580125E1
1.277526921E1,4.499343567E0,8.273894348E0,2.313933151E1,2.498259560E1
1.278529321E1,4.176764374E0,1.026954437E1,2.467528748E1,2.705140873E1
1.279531821E1,5.123246155E0,1.062655197E1,2.601829468E1,2.856786509E1
1.280534221E1,6.431525574E0,1.029738647E1,2.703782455E1,2.963856687E1
1.281536721E1,7.309749298E0,9.479936371E0,2.693453934E1,2.947492218E1
1.282539121E1,7.054380341E0,9.074279938E0,2.589300522E1,2.832939388E1
1.283541521E1,5.499713287E0,9.876611481E0,2.326626755E1,2.586722842E1
1.284544021E1,3.252286835E0,1.112756012E1,2.010738647E1,2.321006150E1
1.285546421E1,7.720944214E-1,1.175580368E1,1.721345444E1,2.085900438E1
1.286548821E1,-1.559008026E0,1.199829941E1,1.430964294E1,1.873914555E1
1.287551321E1,-3.455713806E0,1.250918701E1,1.210742249E1,1.774856042E1
1.288553721E1,-4.601880341E0,1.332409241E1,1.084120560E1,1.778315158E1
1.289556121E1,-5.024301910E0,1.385204453E1,1.017134857E1,1.790472225E1
1.290558621E1,-4.893473969E0,1.355102051E1,9.810449066E0,1.743046629E1
1.291561021E1,-3.899989929E0,1.198901871E1,9.752669220E0,1.593929258E1
1.292563521E1,-2.292183380E0,9.529333649E0,1.025322830E1,1.418418116E1
1.293565921E1,-6.057902527E-1,7.415429535E0,1.093940140E1,1.322974225E1
1.294568321E1,1.040037231E0,5.620362396E0,1.107247467E1,1.246073217E1
1.295570821E1,2.245031433E0,3.836821289E0,1.051144135E1,1.141278944E1
1.296573221E1,2.972668304E0,2.320175171E0,8.828041992E0,9.599702865E0
1.297575621E1,3.130290527E0,1.451082458E0,6.805298309E0,7.629970129E0
1.298578121E1,2.971021729E0,1.060394897E0,5.336851959E0,6.199467419E0
1.299580521E1,2.493065643E0,9.985734558E-1,4.209546204E0,4.993275928E0
1.300583021E1,1.828298035E0,9.684860229E-1,2.997067566E0,3.641847454E0
1.301585421E1,1.232985992E0,8.270301819E-1,1.949096832E0,2.450145269E0
1.302587821E1,6.933581543E-1,6.620732117E-1,1.306333466E0,1.620368350E0
1.303590321E1,1.722917175E-1,7.469467163E-1,9.238787842E-1,1.200485669E0
1.304592721E1,-2.643502808E-1,8.553213501E-1,9.386979675E-1,1.297154408E0
1.305595121E1,-7.185058594E-1,9.086105347E-1,1.329984283E0,1.763712553E0
1.306597621E1,-1.223854980E0,1.108145599E0,1.375339966E0,2.148806111E0
1.307600021E1,-1.466500397E0,1.318158875E0,1.205592957E0,2.311194628E0
1.308602521E1,-1.546284485E0,1.436862030E0,1.123862915E0,2.391366984E0
1.309604921E1,-1.423240356E0,1.420545959E0,1.011147308E0,2.250773826E0
1.310607321E1,-1.208886108E0,1.205443268E0,9.526190186E-1,1.954989025E0
1.311609821E1,-9.589059448E-1,1.025667114E0,8.969348145E-1,1.666128957E0
1.312612221E1,-7.002438354E-1,1.039737854E0,8.319699097E-1,1.504516588E0
1.313614621E1,-4.255650330E-1,9.463320923E-1,1.056203613E0,1.480613420E0
1.314617121E1,-1.547781372E-1,6.773414612E-1,1.795366516E0,1.925120426E0
1.315619521E1,-1.210981750E-1,5.406756592E-1,2.243085480E0,2.310503713E0
1.316621921E1,-2.454895020E-1,4.580474854E-1,2.367626495E0,2.423990061E0
1.317624421E1,-3.758683777E-1,3.881428528E-1,2.421963501E0,2.481499368E0
1.318626821E1,-5.566923523E-1,4.318519592E-1,2.341430969E0,2.445138334E0
1.319629321E1,-7.045848083E-1,5.224136353E-1,2.103276215E0,2.278843258E0
1.320631721E1,-7.620652771E-1,5.089416504E-1,1.869911499E0,2.082386637E0
1.321634121E1,-5.897735596E-1,4.056564331E-1,1.653760986E0,1.802030908E0
1.322636621E1,-1.435514832E-1,2.612068176E-1,1.561552734E0,1.589743052E0
1.323639021E1,2.815644836E-1,2.163002014E-1,1.555565186E0,1.595571177E0
1.324641421E1,6.253994751E-1,2.881507874E-1,1.728156281E0,1.860290168E0
1.325643921E1,7.246430969E-1,6.599775696E-1,1.798809357E0,2.048509974E0
1.326646321E1,6.545887756E-1,1.171164551E0,1.898352356E0,2.324619224E0
1.327648821E1,4.337979126E-1,1.500030670E0,2.215542755E0,2.710516988E0
1.328651221E1,4.581971741E-1,1.578168182E0,2.681673431E0,3.145144171E0
1.329653621E1,3.363505554E-1,2.455194397E0,3.287463684E0,4.116859082E0
1.330656121E1,-2.797682190E-1,4.554279327E0,4.079167328E0,6.120403299E0
1.331658521E1,-6.631210327E-1,6.855593719E0,5.433850250E0,8.773005374E0
1.332661021E1,-6.216572571E-1,8.527616730E0,7.258406067E0,1.121566598E1
1.333663421E1,-5.173242188E-1,9.978399811E0,9.397757263E0,1.371692125E1
1.334665821E1,-5.846841431E-1,1.191896439E1,1.150657196E1,1.657723638E1
1.335668321E1,4.685256958E-2,1.314326843E1,1.344893280E1,1.880482634E1
1.336670721E1,1.570683746E0,1.289732986E1,1.638358017E1,2.091004219E1
1.337673121E1,3.293002167E0,1.163769928E1,1.979333954E1,2.319603841E1
1.338675621E1,5.747897186E0,9.586365051E0,2.307825851E1,2.564259607E1
1.339678021E1,8.615633698E0,7.334597626E0,2.512450333E1,2.755478423E1
1.340680396E1,1.065559158E1,5.160967712E0,2.572774887E1,2.832126907E1
1.341682896E1,1.065454376E1,4.117936707E0,2.533406754E1,2.779013644E1
1.342685296E1,9.003926239E0,4.619543610E0,2.490251495E1,2.688021804E1
1.343687796E1,6.970404968E0,5.578449554E0,2.425735657E1,2.584811391E1
1.344690196E1,5.335504761E0,5.808221741E0,2.288336380E1,2.420436716E1
1.345692596E1,4.379742279E0,5.750591583E0,2.070688980E1,2.193232161E1
1.346695096E1,3.863765259E0,5.904770966E0,1.822056015E1,1.953928899E1
1.347697496E1,3.249891815E0,6.191424866E0,1.584110825E1,1.731578035E1
1.348699896E1,2.718945923E0,6.222260742E0,1.360835129E1,1.520843254E1
1.349702396E1,2.538571014E0,6.016289062E0,1.173664352E1,1.343089268E1
1.350704796E1,2.481838989E0,5.698350220E0,9.982291718E0,1.175911850E1
1.351707296E1,2.420167236E0,5.241949310E0,8.592881012E0,1.035243189E1
1.352709696E1,2.299218750E0,5.021906891E0,7.519163818E0,9.329725623E0
1.353712096E1,2.071542206E0,4.898862762E0,6.431974640E0,8.346283080E0
1.354714596E1,1.856589203E0,4.652325439E0,5.602699127E0,7.515403713E0
1.355716996E1,1.888023834E0,4.355492706E0,5.112468567E0,6.976552556E0
1.356719396E1,2.007325745E0,4.093986511E0,4.878804474E0,6.677785209E0
1.357721896E1,1.858535156E0,4.101770325E0,4.361480255E0,6.269065540E0
1.358724296E1,1.695374451E0,4.113296356E0,3.871698761E0,5.897758281E0
1.359726796E1,1.578467560E0,4.029171295E0,3.887116699E0,5.816825371E0
1.360729196E1,1.265169067E0,4.080813904E0,4.163741455E0,5.965772187E0
1.361731596E1,8.539741516E-1,4.154610443E0,4.380790100E0,6.097653785E0
1.362734096E1,5.727090454E-1,4.162843323E0,4.272415466E0,5.992561564E0
1.363736496E1,5.592370605E-1,4.057312775E0,4.461322632E0,6.056230896E0
1.364738896E1,5.670208740E-1,4.101021881E0,5.003644867E0,6.494332537E0
1.365741396E1,5.971083069E-1,4.319866791E0,5.235512695E0,6.813837436E0
1.366743796E1,8.027806091E-1,4.314627686E0,5.439987488E0,6.989558830E0
1.367746296E1,1.088686066E0,4.277355194E0,5.831423492E0,7.313446845E0
1.368748696E1,1.449884949E0,4.202061768E0,6.148314514E0,7.586913788E0
1.369751096E1,1.906435547E0,4.030817871E0,6.676266632E0,8.028357575E0
1.370753596E1,1.949695587E0,3.936214600E0,7.670798492E0,8.839471012E0
1.371755996E1,1.698817291E0,3.861968994E0,8.599617004E0,9.578841126E0
1.372758396E1,1.502276001E0,3.663781128E0,9.510023804E0,1.030148912E1
1.373760896E1,1.260828094E0,3.468736725E0,1.003737717E1,1.069442670E1
1.374763296E1,1.125509491E0,3.325484619E0,1.004126907E1,1.063732599E1
1.375765796E1,1.072819061E0,3.326532440E0,9.850116577E0,1.045186851E1
1.376768196E1,1.163081360E0,3.353925476E0,9.715995483E0,1.034418400E1
1.377770596E1,1.287322998E0,3.456611938E0,9.555529175E0,1.024272934E1
1.378773096E1,1.366508331E0,3.642675018E0,9.437873840E0,1.020832449E1
1.379775496E1,1.500629425E0,3.868704987E0,9.353748779E0,1.023285802E1
1.380777896E1,1.521735535E0,4.195026398E0,9.180858307E0,1.020794224E1
1.381780396E1,1.495989075E0,4.522545319E0,9.116492157E0,1.028600159E1
1.382782796E1,1.316512299E0,4.817881165E0,9.053323517E0,1.033962525E1
1.383785296E1,1.063538361E0,4.924160156E0,8.958869934E0,1.027812325E1
1.384787696E1,7.629634094E-1,4.876259766E0,8.949738922E0,1.022046228E1
1.385790096E1,6.273454285E-1,4.684059448E0,8.924441528E0,1.009849651E1
1.386792596E1,7.140151978E-1,4.353247375E0,8.916508026E0,9.948100110E0
1.387794996E1,8.195457458E-1,3.998036041E0,8.919052734E0,9.808437648E0
1.388797396E1,8.276289368E-1,3.726800079E0,8.807834015E0,9.599580643E0
1.389799896E1,7.071295166E-1,3.653003540E0,8.618777161E0,9.387640106E0
1.390802296E1,4.086502075E-1,3.849395142E0,8.723409576E0,9.543726347E0
1.391804796E1,-2.814147949E-2,4.120481415E0,8.800349579E0,9.717268739E0
1.392807196E1,-3.168910217E-1,4.242926788E0,8.711883545E0,9.695347469E0
1.393809596E1,-5.191204834E-1,4.334835663E0,8.693022766E0,9.727740288E0
1.394812096E1,-7.517367554E-1,4.460723877E0,8.670120392E0,9.779271612E0
1.395814496E1,-9.578581238E-1,4.578079834E0,8.634644165E0,9.820050255E0
1.396816896E1,-1.113235016E0,4.640050964E0,8.522527313E0,9.767437584E0
1.397819396E1,-1.192719727E0,4.650080109E0,8.535101166E0,9.792536815E0
1.398821796E1,-1.091829529E0,4.575086060E0,8.680598602E0,9.873008471E0
1.399824296E1,-9.289682007E-1,4.504283295E0,8.874146118E0,9.995099762E0
1.400826696E1,-7.661068726E-1,4.504283295E0,9.188642120E0,1.026190196E1
1.401829096E1,-8.113128662E-1,4.541406097E0,9.390272827E0,1.046230480E1
1.402831596E1,-1.059646454E0,4.566404114E0,9.489516449E0,1.058422503E1
1.403833996E1,-1.375789032E0,4.619842987E0,9.457932129E0,1.061547101E1
1.404836396E1,-1.792971497E0,4.762496338E0,9.185199280E0,1.050066683E1
1.405838896E1,-2.209854584E0,4.899611206E0,8.812025299E0,1.032189116E1
1.406841296E1,-2.469265137E0,4.968767395E0,8.426576843E0,1.008925751E1
1.407843796E1,-2.471959534E0,4.968468018E0,8.071215820E0,9.794936610E0
1.408846196E1,-2.235301666E0,4.805457001E0,7.911198578E0,9.522397464E0
1.409848596E1,-1.879641266E0,4.619244232E0,7.886050873E0,9.330609141E0
1.410851096E1,-1.557361450E0,4.501588898E0,8.085286560E0,9.384110829E0
1.411853496E1,-1.296154633E0,4.414320374E0,8.369395752E0,9.550551107E0
1.412855896E1,-1.061143341E0,4.284390564E0,8.608897705E0,9.674458506E0
1.413858396E1,-9.141490173E-1,4.228856049E0,8.731941833E0,9.745034638E0
1.414860796E1,-6.996450806E-1,4.141138458E0,8.795559540E0,9.746814792E0
1.415863296E1,-5.846841431E-1,4.044589233E0,8.778644714E0,9.683241226E0
1.416865696E1,-5.411247253E-1,4.025728455E0,8.628806305E0,9.537064737E0
1.417868096E1,-5.469625854E-1,4.080664215E0,8.397686920E0,9.352653854E0
1.418870596E1,-5.252577209E-1,4.107907562E0,8.227490845E0,9.210993747E0
1.419872996E1,-5.054988098E-1,4.211791534E0,8.082891541E0,9.128409096E0
1.420875396E1,-5.275030518E-1,4.294419708E0,8.095914459E0,9.179549609E0
1.421877896E1,-5.501060486E-1,4.302353210E0,8.231532440E0,9.304353074E0
1.422880296E1,-5.504054260E-1,4.379742279E0,8.304430847E0,9.404714789E0
1.423882796E1,-6.026467896E-1,4.522395630E0,8.388555908E0,9.548985057E0
1.424885196E1,-6.680607605E-1,4.625531158E0,8.449928284E0,9.656248323E0
1.425887596E1,-7.244934082E-1,4.699477386E0,8.509953461E0,9.748296585E0
1.426890096E1,-7.119195557E-1,4.687502289E0,8.549321594E0,9.776011809E0
1.427892496E1,-6.554869080E-1,4.727768555E0,8.571475525E0,9.810792591E0
1.428894996E1,-5.313949585E-1,4.709057465E0,8.619226227E0,9.836089851E0
1.429897396E1,-4.317022705E-1,4.692591705E0,8.441695404E0,9.667936960E0
1.430899796E1,-4.827461243E-1,4.773573303E0,8.419092407E0,9.690261238E0
1.431902296E1,-6.782395935E-1,4.904101868E0,8.553363190E0,9.882825807E0
1.432904696E1,-9.964778137E-1,5.030738525E0,8.740623779E0,1.013409109E1
1.433907096E1,-1.247655487E0,5.027145996E0,8.865464172E0,1.026768212E1
1.434909596E1,-1.368154907E0,4.886737976E0,8.974437561E0,1.030982955E1
1.435911996E1,-1.408121796E0,4.796475677E0,9.106163635E0,1.038803167E1
1.436914496E1,-1.319955139E0,4.796475677E0,9.196276245E0,1.045561845E1
1.437916896E1,-9.779164124E-1,4.722828827E0,9.191336517E0,1.037988919E1
1.438919296E1,-5.634283447E-1,4.724475403E0,9.056017914E0,1.022983772E1
1.439921796E1,-2.752775574E-1,4.845274200E0,8.847800903E0,1.009138448E1
1.440924233E1,-1.993853760E-1,4.964875488E0,8.688232727E0,1.000875272E1
1.441926633E1,-2.885998535E-1,5.050796814E0,8.581205292E0,9.961471909E0
1.442929133E1,-4.647834778E-1,5.100643158E0,8.501720581E0,9.925312949E0
1.443931533E1,-6.378236389E-1,5.080285492E0,8.491541748E0,9.915765272E0
1.444934033E1,-7.490423584E-1,5.040617981E0,8.561895447E0,9.963681434E0
1.445936433E1,-8.264314270E-1,5.007686462E0,8.520431671E0,9.917543470E0
1.446938833E1,-7.728428650E-1,4.947810974E0,8.628207550E0,9.976175873E0
1.447941333E1,-6.035449219E-1,4.863087158E0,8.640182648E0,9.933108243E0
1.448943733E1,-4.438270569E-1,4.818180542E0,8.627908173E0,9.892049617E0
1.449946133E1,-3.332070923E-1,4.854854279E0,8.665480042E0,9.938369151E0
1.450948633E1,-2.802172852E-1,4.909790039E0,8.676557007E0,9.973324493E0
1.451951033E1,-3.670367432E-1,4.987029419E0,8.627758484E0,9.972130908E0
1.452953533E1,-4.692741394E-1,5.118605804E0,8.627010040E0,1.004219328E1
1.453955933E1,-5.266049194E-1,5.231022034E0,8.639134827E0,1.011313773E1
1.454958333E1,-5.713618469E-1,5.277275848E0,8.615484009E0,1.011941992E1
1.455960833E1,-4.372407532E-1,5.203030243E0,8.685388641E0,1.013403567E1
1.456963233E1,-1.962419128E-1,5.021308136E0,8.699459381E0,1.004652377E1
1.457965633E1,1.175056458E-1,4.796325989E0,8.748706970E0,9.977896783E0
1.458968133E1,3.836521912E-1,4.643793182E0,8.904532928E0,1.005001049E1
1.459970533E1,6.429130554E-1,4.525688782E0,9.045390015E0,1.013480521E1
1.460973033E1,9.148974609E-1,4.405638428E0,9.238488464E0,1.027600878E1
1.461975433E1,1.165925446E0,4.292024689E0,9.411977692E0,1.040990788E1
1.462977833E1,1.432521057E0,4.146826630E0,9.657616882E0,1.060744321E1
1.463980333E1,1.656006317E0,3.966451721E0,9.878258057E0,1.077288626E1
1.464982733E1,1.834435272E0,3.810625763E0,9.953401794E0,1.081463031E1
1.465985233E1,1.873504028E0,3.751349030E0,1.004141876E1,1.088176124E1
1.466987633E1,1.753004608E0,3.802692261E0,1.001642075E1,1.085643487E1
1.467990033E1,1.556613007E0,3.868854675E0,9.854457550E0,1.070053336E1
1.468992533E1,1.396446075E0,3.851790161E0,9.556427307E0,1.039767532E1
1.469994933E1,1.251397705E0,3.784130859E0,9.207951965E0,1.003354484E1
1.470997333E1,1.111887817E0,3.721411285E0,8.818162537E0,9.635620737E0
1.471999833E1,8.547225952E-1,3.714824982E0,8.560997314E0,9.371293954E0
1.473002233E1,6.544390869E-1,3.798500977E0,8.419541473E0,9.259890864E0
1.474004733E1,5.795947266E-1,3.841162262E0,8.390950928E0,9.246540707E0
1.475007133E1,6.173162842E-1,3.802392883E0,8.302634583E0,9.152759805E0
1.476009533E1,6.027964783E-1,3.829187164E0,8.153694305E0,9.028220686E0
1.477012033E1,7.060816956E-1,3.753444672E0,8.030051422E0,8.892053987E0
1.478014433E1,8.339158630E-1,3.663332062E0,8.013735352E0,8.850727187E0
1.479016833E1,8.000862122E-1,3.641776886E0,7.869285736E0,8.707946648E0
1.480019333E1,6.041436768E-1,3.638184357E0,7.617359619E0,8.463187494E0
1.481021733E1,3.356021118E-1,3.583398285E0,7.455396423E0,8.278665827E0
1.482024233E1,1.261875916E-1,3.443439331E0,7.769892426E0,8.499672114E0
1.483026633E1,-3.697311401E-2,3.432062988E0,8.048762512E0,8.750028648E0
1.484029033E1,-1.284329224E-1,3.495381317E0,8.006400604E0,8.737083965E0
1.485031533E1,-1.719923401E-1,3.613036652E0,7.888146515E0,8.677930090E0
1.486033933E1,-2.604583740E-2,3.713777161E0,7.599846039E0,8.458751622E0
1.487036433E1,9.086105347E-2,3.857478333E0,7.375762024E0,8.324077141E0
1.488038833E1,1.532812500E-1,3.930975494E0,7.500901794E0,8.469922739E0
1.489041233E1,1.977388000E-1,3.930825806E0,7.554340668E0,8.518130961E0
1.490043733E1,1.549278259E-1,3.909869385E0,7.688162384E0,8.626640254E0
1.491046133E1,7.454498291E-2,3.955823822E0,7.942633209E0,8.873529251E0
1.492048533E1,8.726852417E-2,3.973786469E0,8.148155823E0,9.065927311E0
1.493051033E1,2.164498901E-1,3.988156586E0,8.273894348E0,9.187468160E0
1.494053433E1,1.902543640E-1,3.914360046E0,7.888894958E0,8.808693147E0
1.495055933E1,2.151026917E-1,3.868106232E0,7.537575531E0,8.474878163E0
1.496058333E1,5.767506409E-1,4.131708069E0,8.736881561E0,9.681774232E0
1.497060733E1,5.355862427E-1,4.199966125E0,8.622220001E0,9.605688202E0
1.498063233E1,5.008584595E-1,3.906276855E0,8.699160004E0,9.549096441E0
1.499065633E1,4.260140991E-1,3.851790161E0,9.254804535E0,1.003340333E1
1.500068033E1,3.288661194E-1,3.899989929E0,9.718091125E0,1.047661059E1
1.501070533E1,1.797761536E-1,3.928131409E0,9.980794830E0,1.072747879E1
1.502072933E1,7.604187012E-2,3.946243744E0,1.015563126E1,1.089566282E1
1.503075433E1,-3.457809448E-2,4.110751648E0,1.021700363E1,1.101302129E1
1.504077833E1,-5.403762817E-2,4.183051300E0,1.018526962E1,1.101092891E1
1.505080233E1,-2.020797729E-2,4.251758423E0,9.950108643E0,1.082046764E1
1.506082733E1,4.939727783E-3,4.305496674E0,9.550589447E0,1.047621519E1
1.507085133E1,8.622070312E-2,4.212539978E0,9.472901001E0,1.036767961E1
1.508087533E1,1.261875916E-1,4.159550171E0,9.638007660E0,1.049804613E1
1.509090033E1,5.688171387E-2,4.173321533E0,9.735155640E0,1.059212460E1
1.510092433E1,-3.876937866E-2,4.147126007E0,9.875713348E0,1.071120308E1
1.511094933E1,-1.082249451E-1,3.992048492E0,1.004590942E1,1.081057168E1
1.512097333E1,-2.320175171E-2,3.784430237E0,1.012030472E1,1.080476830E1
1.513099733E1,1.532812500E-1,3.653153229E0,1.017928207E1,1.081604397E1
1.514102233E1,2.688409424E-1,3.574117584E0,1.021236328E1,1.082307515E1
1.515104633E1,2.947370911E-1,3.515589294E0,1.021610550E1,1.080810111E1
1.516107133E1,3.267704773E-1,3.473077698E0,1.013302826E1,1.071668369E1
1.517109533E1,2.929408264E-1,3.494034119E0,1.003153931E1,1.062665844E1
1.518111933E1,1.535806274E-1,3.549119568E0,9.852511597E0,1.047338634E1
1.519114433E1,-4.834945679E-2,3.583997040E0,9.599837036E0,1.024715783E1
1.520116833E1,-2.471360779E-1,3.716471558E0,9.405990143E0,1.011661444E1
1.521119233E1,-4.135899353E-1,3.884721680E0,9.353000336E0,1.013611042E1
1.522121733E1,-6.176156616E-1,4.016747131E0,9.245074768E0,1.009886697E1
1.523124133E1,-7.408094788E-1,4.067042542E0,9.303603058E0,1.018070054E1
1.524126633E1,-7.304809570E-1,4.021986237E0,9.517508240E0,1.035823049E1
1.525129033E1,-7.086264038E-1,4.000131683E0,9.732610931E0,1.054641742E1
1.526131433E1,-6.884184265E-1,3.929179230E0,9.857002258E0,1.063357244E1
1.527133933E1,-6.150709534E-1,3.765120392E0,9.996811523E0,1.070003198E1
1.528136333E1,-5.752537537E-1,3.614533539E0,1.004426285E1,1.069032206E1
1.529138733E1,-6.123765564E-1,3.494782562E0,1.004246658E1,1.065080491E1
1.530141233E1,-6.783892822E-1,3.433260498E0,9.943522339E0,1.054140058E1
1.531143633E1,-7.194039917E-1,3.367247772E0,9.891280975E0,1.047345879E1
1.532146133E1,-7.451504517E-1,3.326233063E0,9.980944519E0,1.054695829E1
1.533148533E1,-7.336244202E-1,3.349285126E0,1.004276596E1,1.061193026E1
1.534150933E1,-7.176077271E-1,3.356919250E0,1.016730698E1,1.073116950E1
1.535153433E1,-6.575825500E-1,3.262615356E0,1.043914169E1,1.095685872E1
1.536155833E1,-5.251080322E-1,3.155288544E0,1.072684341E1,1.119360326E1
1.537158333E1,-4.002676392E-1,2.985242157E0,1.080857346E1,1.122038970E1
1.538160733E1,-2.966830444E-1,2.805316315E0,1.091006241E1,1.126886339E1
1.539163133E1,-2.333647156E-1,2.682721252E0,1.086021606E1,1.118909046E1
1.540165633E1,-2.650987244E-1,2.601739655E0,1.061173279E1,1.092923599E1
1.541167958E1,-4.471202087E-1,2.680326233E0,1.027927414E1,1.063238177E1
1.542170358E1,-6.926097107E-1,2.843786316E0,9.855355682E0,1.028080077E1
1.543172858E1,-9.087602234E-1,3.006497955E0,9.335786133E0,9.849963341E0
1.544175258E1,-1.074315948E0,3.159030762E0,8.839418335E0,9.448224522E0
1.545177758E1,-1.173260193E0,3.270099792E0,8.486452332E0,9.170058086E0
1.546180158E1,-1.228645020E0,3.367098083E0,8.244255981E0,8.989698258E0
1.547182558E1,-1.253343658E0,3.437751160E0,8.088579712E0,8.877731981E0
1.548185058E1,-1.188678131E0,3.415297852E0,8.044122162E0,8.819587092E0
1.549187458E1,-1.068328400E0,3.391197968E0,8.057145081E0,8.806766494E0
1.550189958E1,-9.556127930E-1,3.346590729E0,8.183632050E0,8.892957823E0
1.551192358E1,-8.881031799E-1,3.306025085E0,8.353528748E0,9.027733473E0
1.552194758E1,-8.207432556E-1,3.249293060E0,8.588689728E0,9.219388056E0
1.553197258E1,-7.138655090E-1,3.111429749E0,8.754993896E0,9.318825955E0
1.554199658E1,-5.483097839E-1,2.960543518E0,8.825048218E0,9.324534175E0
1.555202058E1,-3.980223083E-1,2.840792542E0,8.874146118E0,9.326252910E0
1.556204558E1,-2.398013306E-1,2.665207672E0,8.822653198E0,9.219546956E0
1.557206958E1,-1.011895752E-1,2.644101562E0,8.781937866E0,9.171910656E0
1.558209458E1,-1.556762695E-2,2.706970825E0,8.611292725E0,9.026754444E0
1.559211858E1,-5.583389282E-2,2.702031097E0,8.461005249E0,8.882156230E0
1.560214258E1,-2.270777893E-1,2.781815186E0,8.312064972E0,8.768151695E0
1.561216758E1,-4.878355408E-1,2.917882233E0,8.126600647E0,8.648332690E0
1.562219158E1,-6.589297485E-1,3.010838928E0,8.070018311E0,8.638549357E0
1.563221558E1,-8.918453979E-1,3.187920685E0,8.022417297E0,8.678560122E0
1.564224058E1,-1.088686066E0,3.245251465E0,8.058941345E0,8.755765531E0
1.565226458E1,-1.142574005E0,3.252436523E0,8.087382202E0,8.791448662E0
1.566228958E1,-1.089584198E0,3.293900299E0,8.109536133E0,8.820518647E0
1.567231358E1,-9.749226379E-1,3.334465942E0,8.194409637E0,8.900420584E0
1.568233758E1,-8.747808838E-1,3.346590729E0,8.260272675E0,8.955278653E0
1.569236258E1,-7.568261719E-1,3.358116760E0,8.387807465E0,9.066699956E0
1.570238658E1,-7.059320068E-1,3.386407928E0,8.554560699E0,9.227491935E0
1.571241158E1,-7.255412292E-1,3.423081665E0,8.550818481E0,9.239068939E0
1.572243558E1,-7.357200623E-1,3.496279449E0,8.683592377E0,9.389889806E0
1.573245958E1,-8.032296753E-1,3.654799805E0,8.766220551E0,9.531493181E0
1.574248458E1,-9.442364502E-1,3.747008057E0,8.750652924E0,9.565854820E0
1.575250858E1,-1.071322174E0,3.787274323E0,8.833131409E0,9.670335489E0
1.576253258E1,-1.162931671E0,3.796255646E0,8.923543396E0,9.766964408E0
1.577255758E1,-1.165177002E0,3.700155487E0,9.063202972E0,9.858520994E0
1.578258158E1,-1.127156067E0,3.608246613E0,9.310638428E0,1.004877666E1
1.579260658E1,-1.110390930E0,3.573219452E0,9.482930145E0,1.019445091E1
1.580263058E1,-1.051563263E0,3.510050812E0,9.600136414E0,1.027564408E1
1.581265458E1,-9.720785522E-1,3.503614197E0,9.608369293E0,1.027331542E1
1.582267958E1,-9.165440369E-1,3.529809723E0,9.575737152E0,1.024667515E1
1.583270358E1,-8.762777710E-1,3.540287933E0,9.444460144E0,1.012419522E1
1.584272758E1,-9.074130249E-1,3.643872528E0,9.383985901E0,1.010744264E1
1.585275258E1,-9.590556335E-1,3.808679810E0,9.360933838E0,1.015149801E1
1.586277658E1,-1.009650421E0,3.941453705E0,9.352700958E0,1.019938559E1
1.587280158E1,-1.035396881E0,3.981719971E0,9.407337341E0,1.026762565E1
1.588282558E1,-1.019978943E0,3.951782227E0,9.461973724E0,1.030465364E1
1.589284958E1,-9.514215088E-1,3.830983429E0,9.615254974E0,1.039397735E1
1.590287458E1,-8.707392883E-1,3.716471558E0,9.764494629E0,1.048406901E1
1.591289858E1,-7.833210754E-1,3.677253113E0,9.736203461E0,1.043692676E1
1.592292358E1,-6.509962463E-1,3.668122101E0,9.713899841E0,1.040378614E1
1.593294758E1,-5.080435181E-1,3.664529572E0,9.641600189E0,1.032701987E1
1.594297158E1,-3.784130859E-1,3.702700195E0,9.576635284E0,1.027448921E1
1.595299658E1,-3.171903992E-1,3.757037201E0,9.519753571E0,1.023922098E1
1.596302058E1,-3.162922668E-1,3.817062378E0,9.502239990E0,1.024512425E1
1.597304458E1,-3.736230469E-1,3.977229309E0,9.425000610E0,1.023662951E1
1.598306958E1,-5.318440247E-1,4.212240601E0,9.353449402E0,1.027194454E1
1.599309358E1,-7.301815796E-1,4.422253876E0,9.354497223E0,1.037285461E1
1.600311858E1,-8.048762512E-1,4.482877808E0,9.392368469E0,1.043841964E1
1.601314258E1,-7.258406067E-1,4.396357727E0,9.613758087E0,1.059618565E1
1.602316658E1,-5.544470215E-1,4.289330292E0,9.857750702E0,1.076480445E1
1.603319158E1,-4.385879517E-1,4.121678925E0,1.020877075E1,1.101814852E1
1.604321558E1,-3.591032410E-1,3.889811096E0,1.058568695E1,1.128345487E1
1.605324058E1,-3.188369751E-1,3.619024200E0,1.089449478E1,1.148429405E1
1.606326458E1,-3.293151855E-1,3.404969330E0,1.109462860E1,1.161004085E1
1.607328858E1,-3.725752258E-1,3.133284302E0,1.122261246E1,1.165775764E1
1.608331358E1,-3.679348755E-1,2.805016937E0,1.132859207E1,1.167649324E1
1.609333758E1,-3.086581421E-1,2.498155060E0,1.137469620E1,1.164988249E1
1.610336158E1,-2.411485291E-1,2.254461823E0,1.143412262E1,1.165675387E1
1.611338658E1,-2.022294617E-1,2.123035126E0,1.139235947E1,1.159025578E1
1.612341058E1,-2.522254944E-1,2.091450806E0,1.115016312E1,1.134741916E1
1.613343558E1,-3.607498169E-1,2.187101898E0,1.078926361E1,1.101461594E1
1.614345958E1,-5.215155029E-1,2.425106964E0,1.029514114E1,1.058976172E1
1.615348358E1,-6.343807983E-1,2.659369812E0,9.900112610E0,1.027068238E1
1.616350858E1,-5.875282288E-1,2.877615967E0,9.722881165E0,1.015678498E1
1.617353258E1,-3.644920349E-1,2.882555695E0,9.632319489E0,1.006099202E1
1.618355758E1,-1.140628052E-1,2.730921021E0,9.617350616E0,9.998218482E0
1.619358158E1,7.020401001E-2,2.530787201E0,9.637708282E0,9.964699363E0
1.620360558E1,2.061213684E-1,2.328408051E0,9.706116028E0,9.983619505E0
1.621363058E1,2.266287231E-1,2.148631897E0,9.724827118E0,9.961939675E0
1.622365458E1,1.187031555E-1,2.034868469E0,9.594897308E0,9.809018018E0
1.623367858E1,-5.104385376E-2,1.984123993E0,9.403744812E0,9.610919310E0
1.624370358E1,-2.411485291E-1,2.042951660E0,9.130712585E0,9.359578859E0
1.625372758E1,-4.098477173E-1,2.161804504E0,8.823551331E0,9.093757856E0
1.626375258E1,-4.857398987E-1,2.253563690E0,8.559799805E0,8.864799222E0
1.627377658E1,-5.222639465E-1,2.333347778E0,8.384214935E0,8.718505122E0
1.628380058E1,-5.490582275E-1,2.426005096E0,8.243507538E0,8.610597087E0
1.629382558E1,-5.572911072E-1,2.486479340E0,8.161927185E0,8.550450763E0
1.630384958E1,-5.903723145E-1,2.549647980E0,8.136629791E0,8.547162608E0
1.631387458E1,-6.608757019E-1,2.620450745E0,8.086334381E0,8.525979271E0
1.632389858E1,-6.960525513E-1,2.703378296E0,8.103548584E0,8.570895112E0
1.633392258E1,-7.370672607E-1,2.835104370E0,8.158334656E0,8.668304868E0
1.634394758E1,-8.173004150E-1,2.943029938E0,8.176446991E0,8.728326906E0
1.635397158E1,-8.544232178E-1,3.052153015E0,8.289611664E0,8.874871188E0
1.636399558E1,-8.467890930E-1,3.187621307E0,8.317304077E0,8.947375508E0
1.637402058E1,-8.056246948E-1,3.256178741E0,8.371491394E0,9.018514252E0
1.638404458E1,-7.952961731E-1,3.289559326E0,8.478069763E0,9.128601397E0
1.639406958E1,-7.231462097E-1,3.270399170E0,8.624615021E0,9.252158420E0
1.640409358E1,-6.435118103E-1,3.191513214E0,8.817713470E0,9.399570995E0
1.641411771E1,-6.051914978E-1,3.078947296E0,8.964707794E0,9.498008162E0
1.642414271E1,-6.659651184E-1,2.985541534E0,9.182654572E0,9.678745413E0
1.643416671E1,-7.318281555E-1,2.995870056E0,9.348359985E0,9.843914072E0
1.644419171E1,-7.607180786E-1,3.085383911E0,9.438173218E0,9.958785045E0
1.645421571E1,-7.806266785E-1,3.175945587E0,9.466913452E0,1.001591028E1
1.646423971E1,-7.942483521E-1,3.257975006E0,9.347162476E0,9.930492331E0
1.647426471E1,-7.414082336E-1,3.352578278E0,9.234596558E0,9.852270848E0
1.648428871E1,-6.289920044E-1,3.502266998E0,9.171876984E0,9.837928261E0
1.649431271E1,-6.087840271E-1,3.614683228E0,9.210796051E0,9.913390778E0
1.650433771E1,-6.237528992E-1,3.633244629E0,9.337881775E0,1.003920167E1
1.651436171E1,-6.707551575E-1,3.650907898E0,9.374405823E0,1.008258526E1
1.652438671E1,-7.708969116E-1,3.675007782E0,9.415869598E0,1.013698992E1
1.653441071E1,-9.041198730E-1,3.641776886E0,9.436077576E0,1.015477876E1
1.654443471E1,-9.855505371E-1,3.642824707E0,9.544901276E0,1.026385026E1
1.655445971E1,-1.057999878E0,3.665876770E0,9.512718201E0,1.024938163E1
1.656448371E1,-1.112486572E0,3.662134552E0,9.518855438E0,1.025950607E1
1.657450871E1,-1.152154083E0,3.669169922E0,9.451944580E0,1.020438745E1
1.658453271E1,-1.217568054E0,3.701652374E0,9.328152008E0,1.010935815E1
1.659455671E1,-1.318607941E0,3.747906189E0,9.248517609E0,1.006581371E1
1.660458171E1,-1.395398254E0,3.729494476E0,9.274713135E0,1.009339235E1
1.661460571E1,-1.406475220E0,3.612288208E0,9.398954773E0,1.016696363E1
1.662462971E1,-1.421593781E0,3.514242096E0,9.456435242E0,1.018798282E1
1.663465471E1,-1.422641602E0,3.355572052E0,9.570048981E0,1.024058643E1
1.664467871E1,-1.442550201E0,3.117117920E0,9.645641785E0,1.023893455E1
1.665470371E1,-1.457369385E0,2.862946472E0,9.617500305E0,1.013985701E1
1.666472771E1,-1.470991058E0,2.708767090E0,9.649982758E0,1.013032088E1
1.667475171E1,-1.550475769E0,2.615810394E0,9.663155365E0,1.013030161E1
1.668477671E1,-1.659149780E0,2.579885101E0,9.642049255E0,1.011818655E1
1.669480071E1,-1.729353790E0,2.655627594E0,9.643995209E0,1.015133814E1
1.670482571E1,-1.737137604E0,2.728076935E0,9.633516998E0,1.016192406E1
1.671484971E1,-1.682950287E0,2.720442810E0,9.580527191E0,1.010047682E1
1.672487371E1,-1.634900208E0,2.680924988E0,9.612560577E0,1.011244670E1
1.673489871E1,-1.567390594E0,2.609972534E0,9.569001160E0,1.004163598E1
1.674492271E1,-1.520687714E0,2.470462646E0,9.729617157E0,1.015288761E1
1.675494671E1,-1.383273468E0,2.281854858E0,9.892777863E0,1.024633402E1
1.676497171E1,-1.246158600E0,2.070494385E0,1.007240433E1,1.035824248E1
1.677499571E1,-1.202898560E0,2.024689636E0,1.005728577E1,1.032934316E1
1.678502071E1,-1.235381012E0,2.133962402E0,9.904453583E0,1.020677043E1
1.679504471E1,-1.385369110E0,2.301314392E0,9.814640350E0,1.017558159E1
