"Time (s)","Linear Acceleration x (m/s^2)","Linear Acceleration y (m/s^2)","Linear Acceleration z (m/s^2)","Absolute acceleration (m/s^2)"
1.557731810E-1,5.162521601E-1,-6.927337646E-1,3.989038467E-1,9.515884827E-1
1.757217490E-1,-1.483079195E-1,-4.228768349E-1,8.037300110E-1,9.202184453E-1
1.956704390E-1,-4.836093187E-1,-2.078437805E-2,5.225329399E-1,7.122855023E-1
2.156196590E-1,-4.392075539E-1,-1.090764999E-1,9.877014160E-2,4.632024386E-1
2.355683080E-1,-2.211042643E-1,-4.574766159E-1,-1.350116730E-2,5.082855804E-1
2.554975490E-1,-2.978035212E-1,-3.432040215E-1,2.413330078E-1,5.145071022E-1
2.754700020E-1,-5.031359196E-1,3.282337189E-1,8.519239426E-1,1.042428670E0
2.954124670E-1,-2.532244921E-1,2.306928635E-1,9.620981216E-1,1.021261297E0
3.153627440E-1,2.483202815E-1,-2.041449547E-1,-3.948020935E-2,3.238777727E-1
3.353112710E-1,5.725051761E-1,-4.241633415E-1,-2.952747345E-1,7.712741962E-1
3.552416920E-1,4.225984514E-1,-5.221681595E-1,3.175573349E-1,7.430287335E-1
3.752081230E-1,5.719544888E-1,-6.832635403E-1,2.326574326E-1,9.209291415E-1
3.951565690E-1,2.351209164E0,-1.606643200E0,2.479152679E-1,2.858487167E0
4.151051780E-1,2.960210562E0,-2.962600946E0,5.997791290E-1,4.230790227E0
4.350538680E-1,2.119801521E0,-3.861680508E0,2.534465790E-1,4.412524221E0
4.550025180E-1,-5.656014681E-1,-3.657754898E0,-2.814626694E-1,3.711912869E0
4.749509230E-1,-1.471317112E-1,-9.796471596E-1,-6.394472122E-1,1.179088222E0
4.948997350E-1,2.815998077E0,-5.307531357E-2,9.107494354E-1,2.960088967E0
5.148482220E-1,3.297770500E0,-3.424878120E-1,1.504793167E0,3.641015058E0
5.347968720E-1,1.670783758E-1,-2.802053213E0,-7.310862541E-1,2.900673112E0
5.547455620E-1,5.183097124E-1,-3.476129055E0,-3.447992325E0,4.923491570E0
5.746947810E-1,-2.333516121E0,-2.956466198E0,-4.233092308E0,5.666132751E0
5.946431870E-1,1.425527334E-1,-1.270828485E0,-3.015206814E0,3.275179148E0
6.145860990E-1,2.663681030E0,3.205218315E-1,-2.196017742E0,3.467048428E0
6.345403640E-1,2.878109455E0,1.860617876E0,2.388051987E0,4.177104883E0
6.544887290E-1,4.438981533E0,5.043992996E-1,4.106340408E0,6.068031580E0
6.744360760E-1,2.698127747E0,1.459538937E-1,3.725071907E0,4.601886199E0
6.943866380E-1,2.117266893E0,2.082970619E0,1.440834045E0,3.301149564E0
7.143352060E-1,2.597594261E0,4.495679855E0,-7.903575897E-2,5.192771895E0
7.342838150E-1,2.190149069E0,5.878971577E0,-2.301479340E0,6.682504538E0
7.542128930E-1,2.632465124E0,6.260814667E0,-3.211540222E0,7.512766702E0
7.741804630E-1,1.884083629E0,2.796106339E0,-1.044145584E0,3.529620628E0
7.941296830E-1,1.810441017E-1,-1.281910896E0,5.513296127E-1,1.407137824E0
8.140777220E-1,-9.970411062E-1,-3.007001400E0,-4.626264572E-1,3.201588922E0
8.340265340E-1,-4.977844954E-1,-2.885187626E0,-1.807845116E0,3.440988376E0
8.539748990E-1,-3.648306131E-1,-3.036139488E0,-3.028628349E0,4.303932393E0
8.739064590E-1,-1.490526199E0,-3.532641172E0,-2.984331131E0,4.858750282E0
8.938718320E-1,-3.866304636E0,-5.221677303E0,-9.998793602E-1,6.573734413E0
9.138204820E-1,-6.223299503E-1,-4.873284817E0,6.955665588E0,8.515719773E0
9.337668520E-1,7.194391727E0,-2.138202190E0,1.790091705E1,1.941066749E1
9.537177400E-1,8.598380089E0,-1.606994629E0,1.674523354E1,1.889225815E1
9.736663900E-1,5.352929115E0,-5.353107452E-1,8.867877960E0,1.037206186E1
9.936133300E-1,3.314895630E0,2.887086868E-1,4.410742760E0,5.525082573E0
1.013563729E0,3.179144859E0,1.033190727E0,2.593970776E0,4.231208988E0
1.033512053E0,3.613562107E0,1.754691124E0,8.220396042E-1,4.100307446E0
1.053461395E0,2.945646763E0,2.126256227E0,3.605051041E-1,3.650721069E0
1.073409882E0,1.021492481E0,2.015830994E0,7.945137024E-1,2.395469371E0
1.093358450E0,-1.111811638E0,2.082752943E0,-1.606606007E0,2.855725442E0
1.113307181E0,-4.936922550E0,3.147774458E0,-4.922524452E0,7.649374830E0
1.133255261E0,-6.833214760E0,1.670510292E0,-4.004934788E0,8.094623601E0
1.153203788E0,-9.441262245E0,6.649687290E-1,-2.378886700E0,9.759032643E0
1.173152641E0,-9.861188889E0,1.287770271E-1,-1.412907600E0,9.962727423E0
1.193101047E0,-8.570093155E0,6.447408199E-1,-3.200766563E0,9.170991986E0
1.213049818E0,-7.490690231E0,1.191256523E0,-4.806178093E0,8.979358558E0
1.232998427E0,-7.178706169E0,8.418459892E-1,-4.918523788E0,8.742677118E0
1.252945083E0,-7.229294300E0,9.811687469E-2,-3.593008995E0,8.073539288E0
1.272895401E0,-7.189867020E0,-8.246188164E-1,-1.955367088E0,7.496508814E0
1.292844173E0,-6.257764816E0,-1.707468510E0,-2.701106548E0,7.026453287E0
1.312790991E0,-4.888549328E0,-1.749100089E0,-5.653629303E0,7.675987881E0
1.332741675E0,-3.389324665E0,-1.010485411E0,-4.589478493E0,5.794127655E0
1.352690365E0,-1.905727386E-2,-1.590054035E0,-9.998693466E-1,1.878396583E0
1.372619484E0,3.747077942E0,-9.952838421E-1,-1.298744678E0,4.088755406E0
1.392560117E0,1.006570053E1,2.531194687E-2,2.206561565E0,1.030475045E1
1.412499001E0,1.435492039E1,1.401021957E0,1.104684830E1,1.816753861E1
1.432484923E0,1.577462387E1,4.220905304E-1,1.839061165E1,2.423286024E1
1.452434142E0,1.275700569E1,-9.487297535E-1,1.811217117E1,2.217412968E1
1.472382507E0,1.203997231E1,-2.432990074E-1,1.465260124E1,1.896625558E1
1.492330344E0,1.269392490E1,3.719513893E0,1.147702026E1,1.751263850E1
1.512279238E0,1.094064999E1,5.295214653E0,1.002608299E1,1.575625147E1
1.532227928E0,6.175052643E0,4.080230236E0,7.581956387E0,1.059554702E1
1.552176293E0,2.278051853E0,2.229965687E0,4.530938148E0,5.540006112E0
1.572123233E0,-7.229042053E-1,7.038798332E-1,3.836297989E-1,1.079448532E0
1.592073673E0,-1.635393620E0,-7.668004036E-1,-2.913005829E0,3.427549870E0
1.612022079E0,-2.776358128E0,-1.564642668E0,-6.108564377E0,6.889907828E0
1.631968531E0,-3.810881376E0,-2.664457560E0,-6.088557243E0,7.661114818E0
1.651919296E0,-5.165847778E0,-3.766779423E0,-5.610987186E0,8.506338090E0
1.671868353E0,-7.571268082E0,-4.212320328E0,-8.467763901E0,1.211489861E1
1.691816473E0,-8.591132164E0,-4.787349701E0,-1.003435898E1,1.405043163E1
1.711765408E0,-9.124169350E0,-5.948151112E0,-9.147326469E0,1.422338038E1
1.731713732E0,-1.024487495E1,-7.014073849E0,-7.951214790E0,1.474369395E1
1.751662056E0,-9.559042931E0,-7.235052586E0,-7.693092823E0,1.424447138E1
1.771610665E0,-8.695559502E0,-7.149271488E0,-6.884951115E0,1.319573377E1
1.791540678E0,-9.038594246E0,-7.219763756E0,-6.924790382E0,1.348235500E1
1.811508005E0,-1.011591911E1,-6.637250900E0,-6.900714397E0,1.392855980E1
1.831457631E0,-1.060670567E1,-5.290907383E0,-6.064236641E0,1.331431080E1
1.851405263E0,-9.785343170E0,-3.761502028E0,-5.296454906E0,1.174539369E1
1.871334666E0,-7.329306126E0,-2.742453575E0,-5.624722481E0,9.637286074E0
1.891300650E0,-4.283523560E0,-2.027979374E0,-6.729321003E0,8.230737244E0
1.911276440E0,4.031319618E-1,-7.444608212E-1,-7.250264168E0,7.299525176E0
1.931216382E0,3.413484097E0,1.242984295E0,-6.547266960E0,7.487562239E0
1.951128817E0,5.912316799E0,8.176622391E-1,-5.361833572E-1,5.992624973E0
1.971077914E0,1.226724720E1,5.883562565E-1,7.717218876E0,1.450472282E1
1.991046054E0,2.372763824E1,2.445373058E0,1.452304840E1,2.792668260E1
2.010993850E0,3.064057732E1,5.587633133E0,2.277631187E1,3.858532111E1
2.030943435E0,2.619399452E1,1.301616430E0,2.551389313E1,3.658931944E1
2.050891311E0,1.849476242E1,3.517898798E0,1.852740860E1,2.641394931E1
2.070839839E0,1.427825928E1,5.549077034E0,1.520560837E1,2.158405592E1
2.090788895E0,6.846729755E0,3.832105160E0,8.968568802E0,1.191628989E1
2.110736975E0,4.876229763E0,4.617012501E0,-3.558807373E-1,6.724661496E0
2.130685910E0,4.081024170E0,4.155220509E0,-1.111382484E0,5.929231550E0
2.150607907E0,2.556967735E-1,2.642797232E0,3.870105743E-1,2.683194967E0
2.170583494E0,-4.310436249E0,1.501254797E0,5.436005592E-1,4.596643143E0
2.190531981E0,-7.499000549E0,-1.190543175E-1,-8.813323975E-1,7.551551494E0
2.210478148E0,-9.378261566E0,-9.813330173E-1,-3.549414158E0,1.007537321E1
2.230428914E0,-1.004901695E1,-1.502926826E0,-5.419505119E0,1.151575297E1
2.250375244E0,-1.019811344E1,-1.921066284E0,-4.602082729E0,1.135214424E1
2.270325155E0,-1.112775517E1,-2.869991779E0,-2.943463326E0,1.186287335E1
2.290274618E0,-1.159918499E1,-3.220993996E0,-2.074765682E0,1.221558625E1
2.310223268E0,-1.023292732E1,-3.241838694E0,-1.968079805E0,1.091309570E1
2.330171592E0,-8.543256760E0,-3.379801035E0,-1.971151114E0,9.396580645E0
2.350120892E0,-8.278964996E0,-3.282552004E0,-2.665949583E0,9.296434599E0
2.370069094E0,-9.358652115E0,-3.939720154E0,-3.752069473E0,1.082514617E1
2.390018070E0,-1.177106571E1,-4.278818607E0,-5.789541245E0,1.379800944E1
2.409966963E0,-1.021358299E1,-3.194858313E0,-6.937135696E0,1.275336226E1
2.429915206E0,-6.859477043E0,-1.432369947E0,-5.053670883E0,8.639658464E0
2.449863530E0,-6.549500465E0,-2.119305611E0,-3.846238613E0,7.885490732E0
2.469810186E0,-7.307476044E0,-1.796258688E0,-4.420210838E0,8.727199738E0
2.489760748E0,-4.374081612E0,1.039855719E0,-3.621606827E0,5.773207589E0
2.509709235E0,1.780139923E0,3.764883757E0,-1.604371071E-1,4.167611776E0
2.529657762E0,8.120759010E0,5.909811974E0,4.946554184E0,1.119557961E1
2.549606859E0,9.977725983E0,4.706862450E0,8.960346222E0,1.421257803E1
2.569550789E0,1.530146599E1,1.196329832E0,1.114644814E1,1.896864182E1
2.589485034E0,2.389676285E1,2.482775688E0,1.355402946E1,2.758498078E1
2.609452686E0,2.578964806E1,-1.120391130E0,1.448053455E1,2.959809291E1
2.629401295E0,2.437799835E1,-8.666940689E0,1.111777306E1,2.816038960E1
2.649349334E0,1.928846741E1,-6.978524208E0,1.170579910E0,2.054543824E1
2.669278656E0,1.230421162E1,-4.593658924E0,-5.048451424E-1,1.314344682E1
2.689227875E0,3.220461845E0,-2.937712193E0,6.368670464E-1,4.405352092E0
2.709178193E0,-2.297456264E0,-9.493937492E-1,1.113204002E0,2.723761540E0
2.729142386E0,-4.320643425E0,-7.638850212E-1,2.338640690E0,4.971993585E0
2.749092623E0,-2.388332367E0,4.064249992E-1,1.469428778E0,2.833466730E0
2.769041028E0,-2.671132088E-1,1.886273384E0,-5.685887337E-1,1.988132263E0
2.788987887E0,-3.009626865E0,9.582867622E-1,-2.676414490E0,4.139971245E0
2.808938327E0,-6.591469765E0,-1.596503258E-1,-3.393509388E0,7.415447920E0
2.828886773E0,-8.585879326E0,-1.041311741E0,-2.172792673E0,8.917549099E0
2.848835504E0,-9.082642555E0,-1.569224358E0,-9.003064632E-1,9.261069733E0
2.868765396E0,-8.071642876E0,-1.581902504E0,-1.364064932E0,8.337536050E0
2.888732681E0,-6.913659096E0,-1.101612806E0,-2.989199638E0,7.612328641E0
2.908681290E0,-7.418603897E0,-1.333263397E0,-4.434009075E0,8.744924902E0
2.928629940E0,-9.662879944E0,-2.541377306E0,-5.181330681E0,1.125504487E1
2.948601335E0,-1.248577309E1,-3.947397947E0,-6.825264931E0,1.476687921E1
2.968508318E0,-1.075856400E1,-2.969177246E0,-4.895219326E0,1.218711964E1
2.988473651E0,-6.848182678E0,-1.544023514E0,-1.747734308E0,7.234375565E0
3.008424416E0,-4.450725555E0,-6.946918964E-1,-9.955216646E-1,4.613308811E0
3.028373269E0,-5.429490089E0,-1.351292610E0,-2.697673798E0,6.211505314E0
3.048320006E0,-5.683730125E0,-2.047434807E0,-2.798213005E0,6.657835493E0
3.068270609E0,-3.319628716E0,-1.214949846E0,2.200582027E-1,3.541816420E0
3.088218567E0,9.481811523E-1,-2.348475456E-1,2.281411886E0,2.481741538E0
3.108165508E0,5.811951637E0,-8.215904236E-4,2.351361752E0,6.269584085E0
3.128115825E0,1.034811687E1,-1.509590149E-1,5.258507729E0,1.160854061E1
3.148064597E0,1.136757469E1,3.150913715E-1,9.122680664E0,1.457890049E1
3.168013084E0,9.950313568E0,6.510510445E-1,1.007774734E1,1.417722114E1
3.187961856E0,7.486379623E0,7.266073227E-1,7.163563251E0,1.038703406E1
3.207910790E0,5.382908344E0,1.019192219E0,2.995171070E0,6.243837343E0
3.227859440E0,4.203361034E0,2.106134176E0,1.120492458E0,4.833171682E0
3.247788721E0,3.367581367E0,2.258022070E0,1.622165680E0,4.367000049E0
3.267756088E0,1.578897476E0,1.199041128E0,1.539993763E0,2.510417825E0
3.287705185E0,-7.212772369E-1,-2.580647469E-1,-2.644414902E-1,8.104119741E-1
3.307652003E0,-1.916799545E0,-1.314835548E0,-2.868347645E0,3.691927847E0
3.327583482E0,-1.629680634E0,-1.944887519E0,-4.762300491E0,5.396105299E0
3.347543728E0,-1.082071781E0,-1.712011576E0,-4.560808182E0,4.990273965E0
3.367480537E0,-1.196867943E0,-1.550943255E0,-3.621976852E0,4.117843389E0
3.387429186E0,-2.892207146E0,-3.764853001E0,-3.263104439E0,5.760801235E0
3.407378283E0,-3.870744228E0,-3.610523224E0,-4.038612843E0,6.657997636E0
3.427346017E0,-3.248090267E0,-4.006155968E0,-4.946429253E0,7.146085528E0
3.447293690E0,-5.677967072E-1,-3.741127491E0,-4.258762360E0,5.696971550E0
3.467242054E0,1.376760483E0,-3.394884586E0,-3.260393381E0,4.904169224E0
3.487190663E0,5.078992844E-1,-4.608219147E0,-3.003015757E0,5.523744113E0
3.507124258E0,1.356166840E0,-4.849900246E0,-1.677066803E0,5.307850219E0
3.527057364E0,3.798097610E0,-3.503900051E0,-1.910138130E0,5.509218520E0
3.547003002E0,3.873483658E0,-1.956514955E0,-2.153353453E0,4.844456369E0
3.566985384E0,2.476593018E0,-1.433193445E0,-1.548982620E0,3.253752231E0
3.586933667E0,1.713851929E0,-1.035457969E0,4.625811577E-1,2.055101692E0
3.606882276E0,1.545216560E0,2.579203248E-1,2.896533489E0,3.293041659E0
3.626829095E0,1.108141899E0,1.132413387E0,3.334846020E0,3.692091077E0
3.646779657E0,4.583072662E-1,1.751895428E0,2.590790749E0,3.160914400E0
3.666728143E0,-3.155889511E-1,2.025018215E0,1.821332216E0,2.741814399E0
3.686674881E0,-9.113073349E-1,2.112772942E0,1.782097816E0,2.910354478E0
3.706625158E0,-7.276172638E-1,2.354229212E0,2.430449009E0,3.461055395E0
3.726573929E0,-3.792695999E-1,2.578714848E0,3.246996403E0,4.163724455E0
3.746520667E0,6.161594391E-2,2.574423313E0,3.644794464E0,4.462732191E0
3.766470944E0,4.227781296E-1,2.358195305E0,3.526611805E0,4.263427877E0
3.786419715E0,8.871049881E-1,2.636306286E0,3.578347683E0,4.532288410E0
3.806349525E0,9.888029099E-1,2.745709896E0,3.146587849E0,4.291581191E0
3.826303587E0,5.853710175E-1,2.093097925E0,3.230169773E0,3.893291013E0
3.846265583E0,7.025375366E-1,1.456049919E0,3.543123960E0,3.894530492E0
3.866214070E0,1.946415901E0,1.668958068E0,3.811069489E0,4.593278409E0
3.886162719E0,2.970714569E0,2.113116980E0,3.489486933E0,5.046476739E0
3.906111165E0,3.494009972E0,2.595035553E0,4.149341583E0,6.013264569E0
3.926059856E0,4.664324760E0,2.573885441E0,5.307532310E0,7.520020676E0
3.946006715E0,5.467624664E0,2.289558887E0,5.443327904E0,8.047783424E0
3.965957033E0,4.771222115E0,1.522784233E0,4.607446194E0,6.805291523E0
3.985905682E0,4.348798752E0,4.660276175E-1,4.161162376E0,6.036928412E0
4.005852664E0,4.699971199E0,-7.621899843E-1,3.852406979E0,6.124679777E0
4.025824059E0,4.129934311E0,-1.692400455E0,1.987519264E0,4.885776247E0
4.045751956E0,2.383617401E0,-2.410842657E0,-5.398459435E-1,3.432961968E0
4.065698450E0,5.381155014E-1,-2.854156017E0,-2.445026875E0,3.796568356E0
4.085648889E0,4.263687134E-2,-3.055162430E0,-3.135416985E0,4.377976135E0
4.105597498E0,-2.036180496E-1,-3.203532457E0,-2.928884029E0,4.345393213E0
4.125545904E0,-6.909828186E-1,-3.304457188E0,-2.539635897E0,4.224528974E0
4.145494472E0,-1.389197826E0,-3.351979971E0,-2.463626385E0,4.385783315E0
4.165443122E0,-1.431464195E0,-3.481238127E0,-3.102859020E0,4.878098271E0
4.185391812E0,-1.403500080E0,-3.646659374E0,-3.378010511E0,5.165161380E0
4.205345019E0,-1.728833675E0,-4.016104698E0,-3.493218184E0,5.596475328E0
4.225297656E0,-1.438568115E0,-4.049509048E0,-3.619411945E0,5.618553603E0
4.245228443E0,-5.634636879E-1,-3.887429476E0,-3.108266354E0,5.009083647E0
4.265167408E0,-2.780404091E-1,-4.140261650E0,-2.300976276E0,4.744846133E0
4.285114308E0,-5.464396477E-1,-4.087367058E0,-2.204373360E0,4.675941366E0
4.305069997E0,-3.709106445E-1,-3.577295303E0,-2.199326515E0,4.215643903E0
4.325030365E0,7.890973091E-1,-3.303578377E0,-2.205558300E0,4.049789139E0
4.344980602E0,2.127305508E0,-3.081018686E0,-9.830679893E-1,3.870985345E0
4.364929373E0,2.260301590E0,-2.710096836E0,-3.470082283E-1,3.545984045E0
4.384876192E0,1.987869263E0,-2.679714203E0,-1.065399170E0,3.502508787E0
4.404826143E0,1.966804981E0,-3.138076544E0,-1.857478142E0,4.143195781E0
4.424774915E0,2.629198551E0,-2.871014833E0,-2.047279835E0,4.398495870E0
4.444723605E0,2.469206333E0,-2.065723419E0,-1.741899490E0,3.660383449E0
4.464672011E0,2.421622276E0,-1.673622727E0,-5.246748924E-1,2.990075455E0
4.484616551E0,2.542101860E0,-1.699370861E0,6.885676384E-1,3.134368929E0
4.504551325E0,2.336002350E0,-1.699050426E0,-6.135511398E-2,2.889194313E0
4.524517227E0,1.983307362E0,-1.368214250E0,-1.534373760E0,2.856540068E0
4.544466935E0,1.493812084E0,-1.005593777E0,-2.270619392E0,2.898000313E0
4.564410579E0,9.145159721E-1,-5.158545971E-1,-2.156353474E0,2.398396492E0
4.584363339E0,5.454807281E-1,-2.858881950E-1,-1.304104805E0,1.442210327E0
4.604312314E0,5.821757317E-1,-1.455616951E-1,-1.089558601E0,1.243886946E0
4.624260801E0,6.072173119E-1,1.947491169E-1,-1.749984264E0,1.862547988E0
4.644207904E0,3.414702415E-1,4.962873459E-1,-2.286635399E0,2.364657375E0
4.664158385E0,-5.176310539E-1,3.921766281E-1,-2.683095455E0,2.760569803E0
4.684106627E0,-1.421402931E0,2.735519409E-2,-2.543455124E0,2.913811690E0
4.704053486E0,-1.728373051E0,-3.882668018E-1,-2.011178493E0,2.680086462E0
4.723984924E0,-1.185020447E0,-2.322288752E-1,-1.410087109E0,1.856488450E0
4.743934265E0,-3.167390823E-1,5.354700089E-1,5.747032166E-2,6.247836542E-1
4.763882467E0,2.793273926E-1,1.206860065E0,1.255789280E0,1.763956271E0
4.783830914E0,9.743404388E-2,1.164304733E0,9.530687332E-1,1.507792729E0
4.803779197E0,-6.870126724E-2,9.271605015E-1,9.582996368E-2,9.346281836E-1
4.823723249E0,-2.913475037E-4,9.752471447E-1,1.294136047E-1,9.837961980E-1
4.843676455E0,2.581253052E-1,6.524984837E-1,1.177149773E0,1.370424946E0
4.863630435E0,1.029565334E0,1.184198856E-1,2.272742271E0,2.497876194E0
4.883566227E0,1.861995220E0,-4.823553562E-1,2.317872047E0,3.012013233E0
4.903539535E0,3.078820705E0,-2.162612677E-1,1.685850620E0,3.516816485E0
4.923490097E0,5.245029449E0,1.033116102E0,1.824032784E0,5.648429729E0
4.943438828E0,6.785228252E0,1.552599669E0,3.486913204E0,7.785143021E0
4.963385728E0,6.411271095E0,7.767558098E-1,4.726114750E0,8.002743734E0
4.983331692E0,4.795405865E0,-4.960188866E-1,4.153909683E0,6.363718866E0
5.003284410E0,3.522991180E0,-9.210145473E-1,2.453010082E0,4.390557267E0
5.023231595E0,3.330012798E0,-9.008802176E-1,4.680070877E-1,3.481321737E0
5.043181628E0,2.630167007E0,-8.943920135E-1,-1.387878895E0,3.105466694E0
5.063130929E0,1.409961224E0,-1.148807168E0,-2.382479668E0,2.997325129E0
5.083078805E0,2.832856178E-1,-1.503132582E0,-2.587125778E0,3.005474687E0
5.103027088E0,-6.751251221E-1,-1.739882112E0,-2.710176468E0,3.290598757E0
5.122976023E0,-1.245366573E0,-1.856528878E0,-2.957617760E0,3.707443889E0
5.142914215E0,-1.744190693E0,-1.979559422E0,-3.573186874E0,4.441679988E0
5.162873770E0,-1.836989403E0,-1.958413124E0,-3.743947744E0,4.607283011E0
5.182815095E0,-1.890088558E0,-1.904454112E0,-3.679633141E0,4.554018036E0
5.202770662E0,-1.880626678E0,-2.074046135E0,-2.965133190E0,4.078043515E0
5.222717236E0,-2.062016487E0,-2.253678560E0,-1.860650539E0,3.576730277E0
5.242649203E0,-2.204920769E0,-2.178249359E0,-1.395380974E0,3.399048974E0
5.262613722E0,-1.953848839E0,-2.098870993E0,-1.299073219E0,3.148074961E0
5.282563470E0,-1.887278557E0,-1.731035709E0,-1.562201500E0,2.999796411E0
5.302513340E0,-2.073546410E0,-1.605757475E0,-2.077655315E0,3.345848680E0
5.322461827E0,-1.469298363E0,-1.719725370E0,-1.626066685E0,2.785746918E0
5.342397212E0,-7.756567001E-1,-1.656579733E0,-7.045660019E-1,1.960181874E0
5.362359575E0,-5.612254143E-1,-1.773986101E0,6.084280014E-1,1.957596814E0
5.382308102E0,6.923365593E-1,-1.249789476E0,1.632514477E0,2.169425538E0
5.402252276E0,3.321836948E0,-9.023206234E-1,1.203593731E0,3.646562914E0
5.422186318E0,4.904221058E0,-9.502704144E-1,1.555728912E-1,4.997859639E0
5.442153766E0,6.446061611E0,1.697371006E-1,1.745232582E0,6.680296232E0
5.462102578E0,8.623229980E0,9.272928238E-1,6.555391312E0,1.087166604E1
5.482032063E0,8.772901535E0,-8.441367149E-1,9.589701653E0,1.302454398E1
5.501999349E0,8.628254890E0,-3.344034910E0,7.981012344E0,1.221989812E1
5.521948242E0,9.104707718E0,-3.685604572E0,6.764162064E0,1.192615915E1
5.541895183E0,7.780637741E0,-3.888484240E0,5.613211632E0,1.035213882E1
5.561845379E0,5.331675529E0,-4.272780418E0,4.280416489E0,8.062591505E0
5.581794232E0,1.309258461E0,-3.758890390E0,1.383079410E0,4.213825262E0
5.601740847E0,-3.249513626E0,-3.356606960E0,-2.893572807E0,5.495353736E0
5.621690839E0,-7.408785343E0,-3.047719955E0,-4.425364494E0,9.152188159E0
5.641644982E0,-1.029806614E1,-1.184374332E0,-2.942684650E0,1.077554183E1
5.661578739E0,-1.174649429E1,-7.355628014E-1,-1.090197444E0,1.181988626E1
5.681519780E0,-1.133677006E1,-4.933702946E-1,-1.565446854E-1,1.134858034E1
5.701466679E0,-1.002480316E1,3.614583015E-1,-4.608929157E-1,1.004189986E1
5.721434250E0,-8.890191078E0,3.474249840E-1,-1.417935610E0,9.009258733E0
5.741382900E0,-7.340593338E0,-9.332847595E-2,-2.280977726E0,7.687384480E0
5.761331386E0,-5.545477867E0,-1.212183714E0,-2.554859161E0,6.224871040E0
5.781279792E0,-5.127035141E0,-2.072767019E0,-2.781999826E0,6.190506885E0
5.801228808E0,-5.022816658E0,-2.287512064E0,-2.891185999E0,6.230598294E0
5.821177254E0,-3.187086582E0,-2.575407982E0,-3.140647650E0,5.162742955E0
5.841146248E0,-3.974967003E-1,-2.150591850E0,-1.509155750E0,2.657178957E0
5.861055551E0,4.027943611E0,-1.826972485E0,3.010849476E0,5.350455379E0
5.881003956E0,9.056963921E0,-1.569350243E0,6.367043018E0,1.118171241E1
5.900952239E0,1.661091805E1,9.185743332E-2,9.680275917E0,1.922599225E1
5.920901337E0,2.275921059E1,8.257060051E-1,1.516399384E1,2.736074133E1
5.940857514E0,2.117676353E1,1.227385044E0,1.701545334E1,2.719351835E1
5.960782726E0,2.337165451E1,2.525371075E0,1.496300888E1,2.786581003E1
5.980764212E0,1.977793312E1,4.951503754E0,9.880504608E0,2.265631036E1
6.000714449E0,1.180025673E1,4.031792164E0,5.735755920E0,1.372589898E1
6.020643893E0,5.661231518E0,2.285248756E0,2.139466524E0,6.469097401E0
6.040593112E0,-3.820381165E-1,-6.706371307E-1,-2.676643133E0,2.785700225E0
6.060576714E0,-4.261379242E0,-3.404559374E0,-4.819390774E0,7.278523546E0
6.080508844E0,-5.533564091E0,-5.024712563E0,-2.979827642E0,8.046579439E0
6.100455825E0,-5.576116562E0,-4.692801952E0,-4.230634570E-1,7.300304704E0
6.120404922E0,-4.478460789E0,-3.783987522E0,-3.729676008E-1,5.874885312E0
6.140352636E0,-6.830012798E0,-3.656578302E0,-2.036701679E0,8.010480225E0
6.160301204E0,-1.036862755E1,-3.860216618E0,-1.747298598E0,1.120101611E1
6.180251848E0,-1.238238811E1,-4.391334534E0,1.466653347E-1,1.313883043E1
6.200200823E0,-1.186235905E1,-4.389712334E0,1.719785333E0,1.276490494E1
6.220149554E0,-1.002879143E1,-3.717282057E0,3.522496462E0,1.126067603E1
6.240097918E0,-8.358813286E0,-3.478995800E0,4.746821404E0,1.022279242E1
6.260046731E0,-6.849977016E0,-3.300515652E0,3.797524214E0,8.499222250E0
6.279995095E0,-7.659200668E0,-3.665789843E0,1.370159388E0,8.601087536E0
6.299943460E0,-9.231721878E0,-4.430295944E0,-1.191166043E0,1.030878691E1
6.319892191E0,-1.018922138E1,-4.588457108E0,-3.279131413E0,1.164589515E1
6.339840719E0,-1.019639683E1,-5.072119236E0,-3.810410023E0,1.200883535E1
6.359770569E0,-1.031556129E1,-5.767924309E0,-2.369837284E0,1.205387425E1
6.379735861E0,-9.663420677E0,-5.934241295E0,-2.162812710E0,1.154446524E1
6.399686464E0,-9.524411201E0,-5.449371815E0,-3.060253859E0,1.139189254E1
6.419635032E0,-8.123009682E0,-5.047626495E0,-4.541588783E0,1.058715487E1
6.439581932E0,-5.361803055E0,-4.310943127E0,-6.335658073E0,9.352738950E0
6.459514224E0,-3.330653191E0,-4.211753368E0,-4.864898205E0,7.245643633E0
6.479480615E0,2.172608852E0,-2.930116177E0,7.641005516E-1,3.726883374E0
6.499429915E0,1.271769238E1,-1.403471470E0,5.126918793E0,1.378385751E1
6.519378565E0,2.048343468E1,-2.463846207E-1,7.615612984E0,2.185473319E1
6.539327174E0,2.212623978E1,4.929402351E0,1.213800621E1,2.571382292E1
6.559275661E0,2.539955330E1,4.475886822E0,2.702005386E1,3.735310136E1
6.579224717E0,2.515904999E1,5.285046101E0,3.364074326E1,4.233921486E1
6.599172512E0,2.320748329E1,7.550989151E0,2.886962318E1,3.780290810E1
6.619102200E0,1.663053131E1,9.116733551E0,2.069433022E1,2.807035278E1
6.639050646E0,8.224225998E0,9.356557846E0,1.294438171E1,1.796496830E1
6.658983142E0,2.070455551E-1,6.322463512E0,3.731994629E0,7.344671309E0
6.678941964E0,-4.413857460E0,2.268155098E0,-4.282009125E0,6.554560807E0
6.698896880E0,-4.212874413E0,-5.618023872E-1,-7.728221893E0,8.819826890E0
6.718845245E0,-4.212306023E0,-1.527255535E0,-6.291977406E0,7.724312990E0
6.738793731E0,-5.776049614E0,-3.611563683E0,-2.989354134E0,7.439245897E0
6.758743561E0,-7.842870712E0,-5.075631618E0,-1.064642429E0,9.402452916E0
6.778692333E0,-9.772493362E0,-5.724954605E0,-2.752366543E0,1.165556748E1
6.798640820E0,-1.241972160E1,-5.554039001E0,-6.782635212E0,1.520200560E1
6.818589225E0,-1.235136986E1,-5.126540661E0,-9.355323792E0,1.632053430E1
6.838537590E0,-9.227577209E0,-4.586666584E0,-7.692393303E0,1.285918373E1
6.858485914E0,-6.772572517E0,-4.296730995E0,-3.402554035E0,8.712462896E0
6.878434767E0,-5.667380333E0,-5.114943981E0,-1.062059402E-2,7.634262542E0
6.898383457E0,-5.479679108E0,-5.657020569E0,-1.158304214E-1,7.876685948E0
6.918332066E0,-5.493997097E0,-5.489522934E0,-3.415864229E0,8.484514988E0
6.938281163E0,-6.108339310E0,-5.148107052E0,-6.134551525E0,1.007211685E1
6.958242452E0,-6.390384197E0,-5.379531384E0,-7.751736164E0,1.139586687E1
6.978171707E0,-5.612430573E0,-5.314457417E0,-6.844673157E0,1.032435883E1
6.998125911E0,-4.920767784E0,-5.226840973E0,-5.387802601E0,8.975646997E0
7.018075008E0,-3.389384270E0,-4.385790825E0,-5.288504601E0,7.661029160E0
7.038041053E0,-2.717590809E0,-3.483647346E0,-7.472088337E0,8.680622256E0
7.057979937E0,-2.960584641E0,-3.536489964E0,-9.774232864E0,1.080774957E1
7.077920733E0,-3.091716051E0,-4.244861603E0,-1.016770649E1,1.144376745E1
7.097870889E0,-1.136752605E0,-3.383317947E0,-8.157237053E0,8.903907185E0
7.117818196E0,5.226164818E0,-1.169750214E0,-4.602826118E0,7.061665706E0
7.137766397E0,1.031910515E1,1.452674866E-1,-2.337276936E0,1.058148842E1
7.157714864E0,1.287740517E1,-1.058084488E0,1.420538425E0,1.299865516E1
7.177663635E0,1.508490944E1,1.248816490E0,9.996583939E0,1.813961758E1
7.197611716E0,2.045415115E1,3.330494404E0,3.147096443E1,3.768137597E1
7.217561098E0,2.397471619E1,6.297287941E-1,4.128571701E1,4.774614124E1
7.237509116E0,2.129533195E1,4.653896809E0,3.137654114E1,3.820519928E1
7.257457990E0,1.698558044E1,7.072312832E0,2.020749855E1,2.732893246E1
7.277406517E0,8.406846046E0,7.442077160E0,1.003835869E1,1.506081731E1
7.297355574E0,2.306596279E0,7.044418335E0,2.847269058E0,7.940475878E0
7.317304488E0,-9.017655849E-1,5.368739605E0,-1.925620079E0,5.774474764E0
7.337252975E0,-3.827587605E0,1.321227074E0,-2.118436813E0,4.569884285E0
7.357201095E0,-5.872960091E0,-1.914764881E0,-9.390544891E-1,6.248184385E0
7.377150477E0,-6.302027225E0,-2.994836330E0,-9.132246971E-1,7.036943310E0
7.397097825E0,-6.121665478E0,-2.861041069E0,-2.681701660E0,7.269929024E0
7.417046271E0,-7.273978233E0,-2.839193344E0,-5.847161293E0,9.755053735E0
7.436983568E0,-9.170652390E0,-3.461873770E0,-8.252174377E0,1.281342332E1
7.456943652E0,-9.830444336E0,-4.058520317E0,-9.035982132E0,1.395557939E1
7.476889023E0,-9.110483170E0,-4.039316654E0,-8.902668953E0,1.336317691E1
7.496842049E0,-7.505681992E0,-3.683876991E0,-8.292337418E0,1.177578327E1
7.516790292E0,-5.657206059E0,-3.522432804E0,-7.155337334E0,9.778055308E0
7.536739145E0,-4.293194294E0,-3.742007256E0,-5.474306107E0,7.899503965E0
7.556705414E0,-3.897064924E0,-4.331797123E0,-4.195822716E0,7.180286178E0
7.576654551E0,-4.272816181E0,-4.886263847E0,-4.197998047E0,7.730182411E0
7.596602672E0,-4.631408215E0,-4.805932999E0,-4.786454678E0,8.213226066E0
7.616551077E0,-4.380289555E0,-4.576220989E0,-5.277399540E0,8.244979141E0
7.636499768E0,-3.334452152E0,-4.094324589E0,-5.813936234E0,7.853911097E0
7.656430188E0,-2.815753222E0,-3.790569782E0,-6.967957020E0,8.417203247E0
7.676397026E0,-2.923926830E0,-3.946468115E0,-7.768067360E0,9.190583725E0
7.696345472E0,-2.687705994E0,-3.931740761E0,-7.817114353E0,9.153667338E0
7.716292454E0,-1.984148026E0,-3.728898048E0,-7.264230251E0,8.403009293E0
7.736243626E0,4.974031448E-2,-3.221073627E0,-5.539565086E0,6.408164383E0
7.756191502E0,2.242400646E0,-1.794884682E0,-4.105503082E0,5.010501695E0
7.776140071E0,5.785727501E-1,-2.759175301E-1,-3.352810383E0,3.413534001E0
7.796088680E0,1.111027718E0,-3.106150627E-1,1.911139965E0,2.232335161E0
7.816041724E0,9.408094406E0,6.999769211E-1,1.157696247E1,1.493413098E1
7.835967139E0,1.523179436E1,2.495461464E0,1.538633347E1,2.179390155E1
7.855934628E0,1.089162922E1,3.521262169E0,9.619672775E0,1.495208944E1
7.875883563E0,7.678894043E0,4.858168602E0,4.276089191E0,1.004251735E1
7.895832090E0,8.565999031E0,7.050381184E0,3.253904343E0,1.156166544E1
7.915780618E0,8.535840988E0,7.465487480E0,4.221470356E0,1.210020234E1
7.935729023E0,7.381925583E0,6.244831562E0,3.473819733E0,1.027415058E1
7.955677754E0,4.675965786E0,5.117564678E0,8.241267204E-1,6.980924661E0
7.975624288E0,3.460017681E0,4.649020195E0,-3.623967171E-1,5.806586132E0
7.995574728E0,1.686950684E0,3.723816395E0,-7.866420746E-1,4.163101837E0
8.015523337E0,-4.456629753E-1,2.757012844E0,-1.270191193E0,3.068080992E0
8.035470155E0,-2.333003998E0,2.309941292E0,-1.668730259E0,3.682851762E0
8.055420676E0,-3.914721012E0,1.969522953E0,-2.274466991E0,4.937333426E0
8.075369530E0,-4.374454975E0,1.912120342E0,-3.168725252E0,5.729998277E0
8.095315412E0,-4.059558868E0,2.156846046E0,-3.795894623E0,5.961612119E0
8.115234480E0,-3.325914383E0,2.632976770E0,-3.356530190E0,5.409303843E0
8.135215519E0,-3.738224030E0,2.409511805E0,-2.334160328E0,5.022785131E0
8.155155827E0,-4.417180061E0,2.180363417E0,-1.199960709E-1,4.927460135E0
8.175112086E0,-4.668911457E0,1.728377581E0,1.764820576E0,5.282103267E0
8.195061020E0,-3.190688133E0,1.794242620E0,1.603991508E0,3.996571794E0
8.215009507E0,-4.550824165E-1,3.008393764E0,2.731031895E0,4.088528862E0
8.234939073E0,3.945913315E-1,3.509729624E0,3.330577850E0,4.854549739E0
8.254906481E0,-3.685331345E-1,2.851665974E0,3.172532082E0,4.281679029E0
8.274855618E0,-1.468429565E-1,2.554967642E0,4.005548000E0,4.753297517E0
8.294802152E0,2.928562164E-1,2.633897305E0,3.988724232E0,4.788851717E0
8.314753365E0,9.267482758E-1,2.841553926E0,3.600578785E0,4.679472050E0
8.334700957E0,8.448419571E-1,2.790556431E0,3.202836514E0,4.331180539E0
8.354648060E0,1.169157505E0,2.873144865E0,3.863071442E0,4.954312430E0
8.374598215E0,1.333338261E0,2.999387980E0,4.802179813E0,5.816790363E0
8.394547353E0,9.884524345E-1,2.810596704E0,3.808522701E0,4.835425236E0
8.414495433E0,1.063088417E0,2.926644325E0,2.351567745E0,3.901957823E0
8.434444123E0,1.575755596E0,3.043152332E0,1.613235474E0,3.787652374E0
8.454392692E0,3.139088631E0,3.247995138E0,2.519610882E0,5.172213148E0
8.474341341E0,3.249199390E0,2.746566296E0,3.526289940E0,5.525906608E0
8.494247266E0,2.009247303E0,1.823656321E0,2.966586113E0,4.020376881E0
8.514238600E0,8.975381851E-1,1.028894544E0,1.471855164E0,2.007624566E0
8.534188266E0,-2.432546616E-1,4.069402218E-1,-6.369304657E-1,7.940110784E-1
8.554122105E0,-1.269991875E0,3.310123682E-1,-2.066609383E0,2.448126404E0
8.574079788E0,-1.514803410E0,9.047936201E-1,-2.179215431E0,2.803972318E0
8.594017898E0,-1.506038666E0,1.335316896E0,-1.496794701E0,2.508309800E0
8.613952022E0,-1.874479294E0,1.104061127E0,-1.478916645E0,2.630554701E0
8.633931311E0,-2.605027199E0,7.234675884E-1,-2.068930149E0,3.404415371E0
8.653879432E0,-3.042059898E0,1.993288994E-1,-2.547436714E0,3.972819433E0
8.673825884E0,-3.312778234E0,-4.862847328E-1,-2.810969114E0,4.371786801E0
8.693776771E0,-3.203753948E0,-9.124474525E-1,-2.236212730E0,4.012137471E0
8.713725421E0,-2.475214481E0,-1.012512445E0,-1.183099747E0,2.924310721E0
8.733673257E0,-1.394489765E0,-8.940072060E-1,-5.788731575E-1,1.754692201E0
8.753622110E0,-7.032699585E-1,-8.889882565E-1,-9.364266396E-1,1.470300516E0
8.773570637E0,1.800742149E-1,-5.966808796E-1,-9.484286308E-1,1.134888392E0
8.793519328E0,1.763219833E0,-4.318771362E-1,-3.080444336E-1,1.841291236E0
8.813468303E0,3.015813351E0,-7.784168720E-1,3.232812881E-1,3.131385282E0
8.833416423E0,2.720540524E0,-1.789695263E0,-2.293915749E-1,3.264501550E0
8.853365032E0,2.590954781E0,-2.384879112E0,-7.489104271E-1,3.600216922E0
8.873314699E0,2.761813641E0,-2.402321815E0,-8.547286987E-1,3.758899552E0
8.893262169E0,2.761716843E0,-2.311708927E0,-1.338561535E0,3.842242192E0
8.913211306E0,2.532066822E0,-1.969583392E0,-2.220179081E0,3.901258295E0
8.933157637E0,2.843080521E0,-1.487797976E0,-3.297730446E0,4.601268929E0
8.953108280E0,2.984820366E0,-5.341777802E-1,-3.563739061E0,4.679180977E0
8.973056889E0,3.083357811E0,2.762141228E-1,-2.542837143E0,4.006171535E0
8.993003504E0,2.983529568E0,9.869205952E-1,-8.893351555E-1,3.265942125E0
9.012953985E0,2.508306026E0,1.320705175E0,5.573749542E-3,2.834764955E0
9.032902675E0,1.310794830E0,1.128278017E0,-2.012958527E-1,1.741181895E0
9.052832404E0,2.888679504E-2,1.064192533E0,-1.309863091E0,1.687922247E0
9.072789232E0,-4.440331459E-1,1.218688369E0,-2.346656799E0,2.681261813E0
9.092766080E0,-5.508451462E-1,1.474527597E0,-2.501939297E0,2.955902951E0
9.112697395E0,-9.699683189E-1,1.580594778E0,-2.351309776E0,2.994624527E0
9.132646574E0,-1.248804569E0,1.487139225E0,-1.721461296E0,2.595096322E0
9.152594776E0,-1.368660450E0,1.558277845E0,-1.098038197E0,2.346731589E0
9.172542774E0,-1.489817619E0,1.614307404E0,-8.992204666E-1,2.373634845E0
9.192491668E0,-1.550832272E0,1.634976387E0,-1.890134811E-1,2.261405452E0
9.212440114E0,-1.199964046E0,1.594716549E0,7.780423164E-1,2.142051454E0
9.232375092E0,-1.114586353E0,1.488634825E0,1.703264713E0,2.521794414E0
9.252335502E0,-1.162638664E0,1.280456901E0,2.021162033E0,2.660149338E0
9.272286023E0,-8.631157875E-1,1.651003599E0,1.582186699E0,2.444196493E0
9.292234510E0,-1.375555515E0,1.781918764E0,1.275682449E0,2.587422109E0
9.312181532E0,-2.890015841E0,1.693305016E0,1.393942356E0,3.628022702E0
9.332131769E0,-3.303233147E0,1.361916065E0,1.555657864E0,3.896952140E0
9.352080459E0,-3.625307560E0,1.196957827E0,1.349214077E0,4.049190236E0
9.372029027E0,-2.914118528E0,1.486248016E0,1.593905449E0,3.638894687E0
9.391977758E0,-1.711899281E0,1.793697000E0,2.229576111E0,3.334510115E0
9.411926408E0,-1.065015793E0,1.601180792E0,2.214227676E0,2.932719347E0
9.431854265E0,5.822563171E-2,2.074145794E0,2.270837784E0,3.076064895E0
9.451823585E0,2.573212624E0,2.921382666E0,4.495474815E0,5.946864191E0
9.471772967E0,3.764905930E0,2.222838640E0,7.118909836E0,8.354304611E0
9.491721006E0,3.409080029E0,1.681545854E0,8.303012848E0,9.131782162E0
9.511670266E0,2.685714722E0,9.762989283E-1,7.259875298E0,7.802051813E0
9.531618102E0,2.190547466E0,7.091381550E-1,4.965976715E0,5.473782957E0
9.551566792E0,2.187514305E0,4.904378653E-1,2.245703697E0,3.173158242E0
9.571513570E0,2.112309933E0,3.087322712E-1,1.165256500E-1,2.137930563E0
9.591463888E0,1.718035221E0,-3.435595036E-1,-7.492289543E-1,1.905524122E0
9.611412497E0,1.370537281E0,-8.267927170E-1,-1.474745750E0,2.176426811E0
9.631359519E0,1.084836006E0,-1.084404230E0,-2.342051029E0,2.799643677E0
9.651309755E0,1.099904060E0,-1.280591249E0,-2.944273949E0,3.393884496E0
9.671265281E0,1.010069847E0,-1.626856446E0,-2.900204182E0,3.475354268E0
9.691171572E0,9.473743439E-1,-1.742245913E0,-3.576667786E0,4.089681090E0
9.711156558E0,-9.677886963E-3,-2.044376373E0,-3.895355225E0,4.399245474E0
9.731104353E0,-1.025952339E0,-2.637885571E0,-3.944392681E0,4.854817412E0
9.751053247E0,-1.354000807E0,-2.725682020E0,-3.807363033E0,4.874287017E0
9.771002548E0,-1.585952759E0,-2.433143139E0,-3.940306425E0,4.895043045E0
9.790950587E0,-6.538918018E-1,-2.048275471E0,-4.058242321E0,4.592639506E0
9.810898504E0,5.523266792E-1,-1.654936075E0,-3.985217094E0,4.350383140E0
9.830848008E0,3.604931831E-1,-2.025262833E0,-2.269238949E0,3.062856556E0
9.850795681E0,-1.687130928E-1,-3.064156055E0,-8.360524178E-1,3.180644602E0
9.870745755E0,-7.234721184E-1,-3.638027430E0,-1.409088612E0,3.967894429E0
9.890691312E0,-5.009570122E-1,-2.985996962E0,-3.242852449E0,4.436578388E0
9.910641833E0,2.194776535E-1,-1.292621136E0,-3.864201546E0,4.080575134E0
9.930590483E0,5.890593529E-1,-4.232406616E-1,-2.292486668E0,2.404499678E0
9.950520741E0,2.689561844E-1,6.570816040E-3,-1.513038158E0,1.536770989E0
9.970496449E0,9.704275131E-1,2.218179703E-1,-7.271757126E-1,1.232768140E0
9.990435577E0,2.830896854E0,2.592744827E-1,2.625590801E0,3.869745123E0
1.001038301E1,3.490120411E0,4.183247089E-1,5.301466942E0,6.360934505E0
1.003033137E1,3.117790699E0,4.606633186E-1,4.847786903E0,5.782202642E0
1.005028149E1,2.064788818E0,6.386895180E-1,2.602930546E0,3.383271285E0
1.007023123E1,1.822300911E0,1.438537359E0,7.762088776E-1,2.447993171E0
1.009017980E1,2.670816898E0,1.858032227E0,8.445501328E-1,3.361370492E0
1.011012809E1,2.513889313E0,1.756890535E0,1.348884106E0,3.350491331E0
1.013007657E1,7.860779762E-1,1.006977081E0,-2.093362808E-1,1.294504965E0
1.015002343E1,-1.306259871E0,2.803792953E-1,-2.031622410E0,2.431546219E0
1.016997395E1,-1.550961256E0,5.577523708E-1,-3.268619537E0,3.660661444E0
1.018992236E1,-6.591010094E-1,8.622574806E-1,-3.054364681E0,3.241457343E0
1.020987109E1,-2.870273590E-1,9.685068130E-1,-2.092007160E0,2.323119478E0
1.022980098E1,-7.220559120E-1,6.048979759E-1,-1.252185822E0,1.566919153E0
1.024977266E1,-1.213240623E0,3.261415958E-1,-9.345598221E-1,1.565797947E0
1.026969808E1,-1.215386391E0,2.261664867E-1,-8.484668732E-1,1.499403679E0
1.028963830E1,-3.256473541E-1,4.196336269E-1,-2.662849426E-1,5.941769524E-1
1.030961454E1,-4.190993309E-1,5.084161758E-1,-5.284729004E-1,8.446388953E-1
1.032956307E1,-1.014786720E0,5.798990726E-1,-5.317287445E-1,1.284060154E0
1.034950993E1,-1.045659542E0,6.938531399E-1,-4.446787834E-1,1.331380967E0
1.036946090E1,-1.037242889E0,9.353082180E-1,-5.738978386E-1,1.509977816E0
1.038939042E1,-2.270679474E-1,1.210896969E0,-8.034801483E-2,1.234620235E0
1.040934037E1,8.175134659E-2,1.378146648E0,2.132091522E-1,1.396935793E0
1.042928744E1,1.562242508E-1,1.438681602E0,1.783828735E-1,1.458091636E0
1.044925464E1,4.736247063E-1,1.497052670E0,6.399536133E-1,1.695590660E0
1.046920150E1,1.074019432E0,1.509896994E0,1.475322723E0,2.368519329E0
1.048915186E1,1.166775703E0,1.569158316E0,1.696681023E0,2.588889695E0
1.050909676E1,1.238227844E0,1.795263052E0,2.220544815E0,3.112394078E0
1.052903117E1,1.884014606E0,1.782681227E0,3.359579086E0,4.244317970E0
1.054897897E1,2.244669437E0,1.589288473E0,4.382192612E0,5.173779162E0
1.056892774E1,2.222398281E0,1.343604565E0,3.537128448E0,4.388120897E0
1.058889885E1,1.528944969E0,1.068347692E0,7.592067719E-1,2.013810923E0
1.060884400E1,8.070387840E-1,1.022562504E0,-1.783862114E0,2.208870688E0
1.062879265E1,6.002902985E-1,1.011841536E0,-2.075540066E0,2.385799300E0
1.064874126E1,7.115306854E-1,4.519817829E-1,-3.565473557E-1,9.152537709E-1
1.066868771E1,6.202344894E-1,-2.568480968E-1,3.520631790E-1,7.580305065E-1
1.068863807E1,7.652425766E-1,-4.918222427E-1,6.577396393E-2,9.120370244E-1
1.070858664E1,1.206575871E0,-5.175554752E-1,-1.007118225E-1,1.316750497E0
1.072851665E1,9.522061348E-1,-6.930918694E-1,-3.344669342E-1,1.224312457E0
1.074846595E1,-2.020835876E-2,-1.091979980E0,-8.432054520E-1,1.379791321E0
1.076841432E1,-3.160085678E-1,-8.759796619E-1,-1.546334743E0,1.805090835E0
1.078836231E1,-6.598601341E-1,-7.416965961E-1,-2.778860569E0,2.950863484E0
1.080831084E1,-1.404290676E0,-7.599732876E-1,-3.871611118E0,4.187954674E0
1.082826035E1,-1.815292597E0,-8.530185223E-1,-3.630924225E0,4.148076487E0
1.084820843E1,-1.490586996E0,-7.066712379E-1,-3.336452484E0,3.721981866E0
1.086815724E1,-1.396390200E0,-5.554327965E-1,-3.889650345E0,4.169867023E0
1.088810621E1,-1.829438686E0,-6.063258648E-1,-4.080670834E0,4.512909418E0
1.090805600E1,-1.728310347E0,-2.870156765E-1,-3.723971844E0,4.115507374E0
1.092800388E1,-1.396050930E0,-1.047401428E-1,-3.375299454E0,3.654117554E0
1.094795220E1,-1.064200640E0,9.754753113E-2,-2.773517132E0,2.972277881E0
1.096790073E1,-3.096518517E-1,1.772530079E-1,-4.515886307E-1,5.755303549E-1
1.098784938E1,8.892350197E-1,4.783525467E-1,2.637981415E0,2.824624935E0
1.100779779E1,2.251806736E0,1.246298790E0,3.878293037E0,4.654573142E0
1.102774631E1,2.952721596E0,1.752685070E0,4.424219131E0,5.600373621E0
1.104769492E1,3.067890644E0,1.566399336E0,4.945737839E0,6.027095706E0
1.106764439E1,2.736226559E0,1.292747498E0,4.924496651E0,5.780034527E0
1.108759275E1,2.983460903E0,1.259226322E0,4.980833054E0,5.940992156E0
1.110754038E1,3.298696518E0,1.171074629E0,5.142510414E0,6.220789971E0
1.112750242E1,2.824072361E0,8.768556118E-1,3.480934143E0,4.567402213E0
1.114743736E1,1.564190865E0,2.667689323E-1,4.851779938E-1,1.659293949E0
1.116738788E1,7.981462479E-1,-3.225083351E-1,-1.589659691E0,1.807779575E0
1.118733632E1,5.728759766E-1,-7.825105190E-1,-2.176089287E0,2.382409323E0
1.120728444E1,6.470584869E-1,-1.091623783E0,-2.162671089E0,2.507483481E0
1.122723330E1,3.137645721E-1,-1.115078926E0,-2.676690102E0,2.916593753E0
1.124718239E1,-1.968803406E-1,-1.209027767E0,-2.969742775E0,3.212457340E0
1.126714887E1,-6.320614815E-1,-1.243834972E0,-2.613902569E0,2.962956934E0
1.128709699E1,-1.016594887E0,-1.282073975E0,-1.742852211E0,2.390546521E0
1.130704409E1,-1.243530512E0,-1.308177710E0,-1.054633617E0,2.090442327E0
1.132699404E1,-1.927805424E0,-1.298146248E0,-1.666631699E0,2.859943820E0
1.134694269E1,-3.359959602E0,-1.764686823E0,-2.507807732E0,4.548906213E0
1.136687287E1,-4.179146290E0,-2.040038586E0,-3.055445671E0,5.564419951E0
1.138683999E1,-4.343843460E0,-1.614408016E0,-3.265964985E0,5.669375321E0
1.140678905E1,-4.138562679E0,-5.138132572E-1,-3.686921597E0,5.566425781E0
1.142673513E1,-3.854111910E0,8.374309540E-2,-2.875106335E0,4.809098456E0
1.144668557E1,-3.317115545E0,-2.818105221E-1,-7.902088165E-1,3.421564362E0
1.146663451E1,-2.391933680E0,-1.584839821E-1,6.442446709E-1,2.482239935E0
1.148658316E1,-1.485665083E0,-4.441027641E-1,-5.004134178E-1,1.629368464E0
1.150653176E1,-6.612696648E-1,-3.336744308E-1,-1.642329216E0,1.801627445E0
1.152646198E1,1.936723232E0,-2.216486931E0,6.196737289E-1,3.007940612E0
1.154641080E1,2.223926067E0,-2.594921827E0,1.358873844E0,3.677771685E0
1.156635904E1,5.731887817E0,-1.253887177E0,7.313529968E0,9.376272799E0
1.158631074E1,1.424251175E1,2.913928032E-1,2.195250130E1,2.616956942E1
1.160625597E1,1.899214172E1,-3.561756849E0,2.662638092E1,3.289911427E1
1.162622151E1,1.440616703E1,-2.847624302E0,1.404561806E1,2.032058068E1
1.164617215E1,8.823136330E0,1.043743610E0,2.554648876E0,9.244639868E0
1.166612080E1,4.482737064E0,2.402576447E0,-1.208389759E0,5.227572188E0
1.168606762E1,6.465530396E-2,1.428032398E0,-1.397080421E-1,1.436306087E0
1.170599979E1,-2.700824976E0,-4.544966221E-1,-2.924523354E-1,2.754369456E0
1.172596658E1,-4.772685051E0,-9.031097889E-1,-2.798968315E0,5.606099670E0
1.174591373E1,-4.983514309E0,1.272085428E0,-4.785011292E0,7.024951905E0
1.176584525E1,-4.569497108E0,-1.723353863E-1,-5.798542023E0,7.384652524E0
1.178581253E1,-4.685196877E0,8.703494072E-2,-6.311947346E0,7.861254617E0
1.180576122E1,-5.755157471E0,-6.654996872E-1,-6.430174351E0,8.655164327E0
1.182570975E1,-6.959136963E0,-9.167134762E-1,-6.195159912E0,9.362155585E0
1.184565836E1,-7.359980106E0,-9.149534702E-1,-6.456887245E0,9.833505983E0
1.186558870E1,-7.428996086E0,-5.515918732E-1,-7.004714012E0,1.022547089E1
1.188555908E1,-7.148444176E0,-3.801841736E-1,-7.159178257E0,1.012416058E1
1.190550447E1,-6.237398624E0,-5.633430481E-1,-6.472137451E0,9.006167896E0
1.192545308E1,-5.817608833E0,-7.921965122E-1,-5.778767586E0,8.238100671E0
1.194539978E1,-5.555577278E0,-1.220856667E0,-5.589365959E0,7.974706372E0
1.196535010E1,-5.584069729E0,-1.331120014E0,-5.828409195E0,8.180713231E0
1.198529875E1,-4.736271381E0,-1.193533897E0,-6.684615612E0,8.278941698E0
1.200524573E1,-2.780410767E0,-9.566917419E-1,-7.005248547E0,7.597331790E0
1.202519609E1,-5.311999321E-1,-9.300043583E-1,-4.991105080E0,5.104724419E0
1.204514482E1,1.504554272E0,-1.909944296E0,7.729229927E-1,2.551270413E0
1.206507446E1,4.636000633E0,-4.509204865E0,6.439054012E0,9.126162773E0
1.208503133E1,1.027879524E1,-3.028691292E0,9.507505417E0,1.432547597E1
1.210496761E1,2.091041374E1,2.444931984E0,2.244275284E1,3.077174435E1
1.212492232E1,2.467703819E1,-2.739390135E0,2.997787285E1,3.892471365E1
1.214488603E1,1.572049046E1,-1.420431137E0,2.000148010E1,2.547961246E1
1.216481031E1,1.145783424E1,1.424911499E0,1.202307129E1,1.666933057E1
1.218478512E1,8.581027031E0,1.895698547E0,7.393823147E0,1.148461225E1
1.220472294E1,6.726966381E0,1.674757481E0,2.658627987E0,7.424634138E0
1.222468246E1,5.473638058E0,1.016902685E0,-6.828885078E-1,5.609023210E0
1.224463099E1,3.015007496E0,3.493106365E-1,-2.662455082E0,4.037444140E0
1.226457805E1,-1.038203239E-1,3.242251873E-1,-3.808217764E0,3.823404657E0
1.228452828E1,-3.026747704E0,4.454407692E-1,-4.537783623E0,5.472759756E0
1.230447685E1,-5.757532597E0,3.575620651E-1,-5.407886505E0,7.907102420E0
1.232442375E1,-7.214487076E0,7.092752457E-1,-6.251900196E0,9.572781790E0
1.234436874E1,-7.034888268E0,1.333178282E0,-6.580461025E0,9.724684292E0
1.236430413E1,-6.003426075E0,1.603886366E0,-7.045903206E0,9.394590364E0
1.238426962E1,-4.985377789E0,1.853092909E0,-7.525166988E0,9.214992307E0
1.240420118E1,-5.816781044E0,1.159390450E0,-7.910690784E0,9.887272456E0
1.242415622E1,-7.250449181E0,8.137631416E-2,-8.216955185E0,1.095874025E1
1.244411622E1,-7.727146626E0,-6.940007210E-1,-8.137873650E0,1.124346119E1
1.246406593E1,-7.642451763E0,-1.081927538E0,-7.887041569E0,1.103553627E1
1.248402898E1,-7.234729767E0,-1.151676893E0,-7.299314022E0,1.034155016E1
1.250394455E1,-6.515043736E0,-6.373535395E-1,-7.130867481E0,9.679942430E0
1.252389324E1,-5.629566193E0,-4.131872654E-1,-7.281883240E0,9.213498942E0
1.254384185E1,-5.226023197E0,-4.353734255E-1,-8.355267525E0,9.864652244E0
1.256379115E1,-4.176917553E0,-1.795139313E-1,-9.239324570E0,1.014120230E1
1.258376080E1,-1.807906389E0,5.439064503E-1,-8.665728569E0,8.869002840E0
1.260372100E1,-5.995340347E-1,8.607122898E-1,-5.627737999E0,5.724657343E0
1.262363669E1,2.058594704E0,1.253953695E0,-1.376743317E0,2.775902409E0
1.264362754E1,5.127951622E0,1.871223688E0,1.554329872E0,5.675676813E0
1.266355242E1,7.964894295E0,-5.323085785E-1,3.896274567E0,8.882783857E0
1.268350116E1,1.115270042E1,-1.180140257E0,1.284323406E1,1.705063398E1
1.270343125E1,1.801087189E1,4.717152119E-1,2.424506378E1,3.020657444E1
1.272339837E1,1.856012535E1,-3.774145365E0,2.610348129E1,3.225080095E1
1.274334723E1,1.536692810E1,-5.650520325E-5,1.944025040E1,2.478035138E1
1.276329209E1,1.770837593E1,3.577139854E0,1.732798004E1,2.503280647E1
1.278324457E1,1.393643665E1,5.456132889E0,1.456084728E1,2.088089860E1
1.280316400E1,7.858101368E0,5.398684502E0,9.718137741E0,1.361388088E1
1.282312290E1,1.602343559E0,3.981937647E0,4.622360229E0,6.307895560E0
1.284309060E1,-3.088569164E0,1.775285006E0,4.197378159E-1,3.587070695E0
1.286302061E1,-4.902024269E0,2.640645504E-1,-1.881793499E0,5.257444131E0
1.288298745E1,-5.059967995E0,-1.845188141E-1,-2.528082848E0,5.659375070E0
1.290293492E1,-5.872551918E0,-6.890916824E-1,-4.049648285E0,7.166684352E0
1.292288479E1,-6.407599926E0,-1.257706642E0,-6.341325760E0,9.102284065E0
1.294283332E1,-7.158613205E0,-1.726911306E0,-8.738331795E0,1.142744102E1
1.296278066E1,-7.282658577E0,-1.794403791E0,-9.671863556E0,1.223936050E1
1.298273057E1,-6.469149590E0,-2.060734034E0,-8.969270706E0,1.124919278E1
1.300267968E1,-5.179148197E0,-2.902803659E0,-8.176633835E0,1.010481004E1
1.302260907E1,-4.428623199E0,-3.297923088E0,-7.860723495E0,9.606246614E0
1.304260069E1,-5.130754948E0,-3.959974766E0,-8.024396896E0,1.031489176E1
1.306250629E1,-5.742954254E0,-4.158697128E0,-9.237030029E0,1.164469876E1
1.308245364E1,-5.449650764E0,-4.140594482E0,-9.658681870E0,1.183779336E1
1.310242251E1,-4.990549564E0,-3.976371288E0,-9.249293327E0,1.123683855E1
1.312237132E1,-4.251959801E0,-3.541320801E0,-7.576814175E0,9.382335967E0
1.314231997E1,-3.064990997E0,-2.849989414E0,-6.193941593E0,7.475394433E0
1.316226858E1,-2.306999207E0,-2.386035442E0,-5.686686516E0,6.584361321E0
1.318221715E1,-2.700130463E0,-2.094083071E0,-5.878961563E0,6.799858637E0
1.320214672E1,-2.317156553E0,-2.292532682E0,-3.426349163E0,4.729142542E0
1.322211295E1,-1.518528461E0,-2.601028442E0,7.052140236E-1,3.093316095E0
1.324204418E1,3.975286484E-1,-2.615533829E0,3.086791039E0,4.065381305E0
1.326201159E1,3.299913406E0,3.968238831E-2,4.225731373E0,5.361698315E0
1.328195837E1,5.550706387E0,1.323593616E0,8.693363190E0,1.039888480E1
1.330189070E1,6.166182041E0,-6.735706329E-1,1.222817421E1,1.371144569E1
1.332187516E1,6.276741982E0,-2.486672401E-1,1.102911186E1,1.269254245E1
1.334180615E1,8.641586304E0,1.475554943E0,1.412167168E1,1.662154888E1
1.336173620E1,7.075896263E0,1.891445637E0,1.435864067E1,1.611882243E1
1.338170336E1,2.101603031E0,2.055469990E0,9.799406052E0,1.023083824E1
1.340165258E1,5.504617691E-1,2.077954292E0,6.615227699E0,6.955727116E0
1.342160074E1,9.644794464E-1,2.102021694E0,5.635866642E0,6.091938001E0
1.344154956E1,1.999557972E0,1.521137238E0,4.769748211E0,5.390972878E0
1.346149821E1,1.575289249E0,9.943408966E-1,3.604120255E0,4.057084279E0
1.348144710E1,-1.059127808E0,1.556560993E-1,1.255740166E0,1.650110268E0
1.350139542E1,-2.748583794E0,-5.143013000E-1,3.430581093E-1,2.817251775E0
1.352134383E1,-3.015918255E0,-9.442470074E-1,-2.232618332E-1,3.168155801E0
1.354129118E1,-3.221053123E0,-1.054331303E0,-9.470052719E-1,3.519036332E0
1.356124129E1,-3.169971943E0,-1.237609386E0,-1.195048332E0,3.606735314E0
1.358120455E1,-2.831463814E0,-1.302978516E0,-1.334619999E0,3.390597423E0
1.360111983E1,-2.978487968E0,-1.310876608E0,-2.074671745E0,3.859281139E0
1.362106824E1,-3.145090103E0,-1.545718431E0,-2.388412476E0,4.240913979E0
1.364101685E1,-3.037258148E0,-1.374779701E0,-2.903090000E0,4.420733857E0
1.366096537E1,-2.459135294E0,-1.150879145E0,-3.607182503E0,4.514823896E0
1.368091467E1,-1.408025742E0,-7.610263824E-1,-3.314463615E0,3.680674762E0
1.370085816E1,-1.065409660E0,-6.381406784E-1,-2.695879936E0,2.968179560E0
1.372081885E1,-1.229561329E0,-1.005923033E0,-1.703460217E0,2.329265747E0
1.374074634E1,-9.538631439E-1,-8.653430939E-1,-8.102674484E-1,1.521580397E0
1.376072758E1,2.336130142E-1,-1.033761740E0,1.652823448E0,1.963431620E0
1.378069039E1,1.667115688E0,-1.131293774E0,4.798517704E0,5.204312873E0
1.380060624E1,1.977997780E0,-1.548586369E0,6.107789993E0,6.604217861E0
1.382057573E1,9.680504799E-1,-1.788753986E0,4.066874981E0,4.547112783E0
1.384051193E1,5.277357101E-1,-1.914138317E0,2.619524002E0,3.286995052E0
1.386045468E1,8.404097557E-1,-1.746723652E0,3.160029888E0,3.707171559E0
1.388041891E1,2.332367420E0,-1.852695227E0,4.777708530E0,5.630179055E0
1.390034994E1,3.096100330E0,-2.153811932E0,5.457656384E0,6.634060317E0
1.392029928E1,2.827688217E0,-2.372975349E0,4.286625385E0,5.657030127E0
1.394026754E1,1.846872330E0,-2.660786152E0,2.122060776E0,3.872190889E0
1.396021481E1,1.425868988E0,-2.621806622E0,2.095699310E-1,2.991804119E0
1.398014373E1,1.385135174E0,-2.711235762E0,-5.843100548E-1,3.100131779E0
1.400011170E1,1.267580509E0,-2.689354897E0,-5.151896477E-1,3.017417850E0
1.402006072E1,1.111584187E0,-2.326518536E0,-8.627781868E-1,2.718950919E0
1.403999045E1,9.650492668E-1,-1.707977295E0,-1.128293991E0,2.263085031E0
1.405993893E1,9.000926018E-1,-1.283765793E0,-1.523641586E0,2.186253642E0
1.407988762E1,5.084099770E-1,-9.849598408E-1,-1.976199150E0,2.265830901E0
1.409985462E1,-3.259892464E-1,-8.065392971E-1,-2.741491318E0,2.876203969E0
1.411980128E1,-7.957386971E-1,-3.942699432E-1,-3.325998783E0,3.442516052E0
1.413975192E1,-8.115036488E-1,1.153512001E-1,-2.887558937E0,3.001639666E0
1.415970090E1,-9.627461433E-1,5.498600006E-2,-2.204887390E0,2.406539424E0
1.417964947E1,-8.782191277E-1,-1.620917320E-1,-1.791995049E0,2.002195999E0
1.419959763E1,-1.361435175E0,-2.146935463E-1,-1.865091324E0,2.319087040E0
1.421954685E1,-2.162032604E0,-3.876461983E-1,-1.950557232E0,2.937571799E0
1.423947629E1,-2.407996893E0,-3.011488914E-1,-4.732184410E-1,2.472463424E0
1.425944366E1,-1.435383320E0,-1.165704727E-1,1.674206257E0,2.208366034E0
1.427939219E1,2.760210037E-1,-4.831357002E-1,4.415320873E0,4.450243377E0
1.429934088E1,5.537919998E-1,-1.048385620E0,6.217955112E0,6.329989239E0
1.431927162E1,-1.186113358E-1,-1.338215590E0,5.527415752E0,5.688340225E0
1.433922015E1,-5.317158699E-1,-1.263863087E0,3.388884068E0,3.655763517E0
1.435916986E1,-6.328811646E-1,-1.403622627E0,1.428299904E0,2.100175151E0
1.437911692E1,-1.064932346E0,-1.423807144E0,-4.179310799E-1,1.826464912E0
1.439906569E1,-1.351151943E0,-1.001416206E0,-8.755960464E-1,1.896078698E0
1.441903265E1,-5.371890068E-1,-4.588785172E-1,9.082498550E-1,1.150677766E0
1.443897963E1,2.423768044E-1,-9.680461884E-1,3.264712811E0,3.413826251E0
1.445893068E1,4.857077599E-1,-1.645431995E0,4.886128902E0,5.178572596E0
1.447887876E1,4.425196648E-1,-1.910937309E0,4.104633331E0,4.549232885E0
1.449882786E1,4.265122414E-1,-1.783191204E0,2.863616943E0,3.400291982E0
1.451875806E1,6.894087791E-1,-2.154847622E0,2.977035046E0,3.739169748E0
1.453870606E1,6.125369072E-1,-2.520785809E0,2.319686413E0,3.480015461E0
1.455865452E1,-1.119222641E-1,-2.740261316E0,9.010605812E-1,2.886774817E0
1.457860323E1,-4.873237610E-1,-2.487664461E0,-6.926436424E-1,2.627872549E0
1.459855253E1,-2.970237732E-1,-1.896009922E0,-1.213255405E0,2.270476916E0
1.461850104E1,-4.329371452E-1,-1.703526020E0,-7.656340599E-1,1.917193518E0
1.463844996E1,-9.828622341E-1,-1.818453312E0,-2.205114365E-1,2.078801557E0
1.465840778E1,-1.713338614E0,-2.290196657E0,-3.133955002E-1,2.877281125E0
1.467835826E1,-2.154341936E0,-2.299308777E0,-1.112155437E0,3.341391888E0
1.469829267E1,-2.181624889E0,-1.986083746E0,-2.097042084E0,3.619613419E0
1.471824934E1,-1.933540106E0,-1.672214985E0,-2.266049862E0,3.416118012E0
1.473820138E1,-2.278750420E0,-1.485911369E0,-2.069981575E0,3.418400180E0
1.475814175E1,-2.768829346E0,-1.511539698E0,-1.892867088E0,3.678874015E0
1.477809042E1,-2.534122467E0,-1.060128212E0,-1.529763699E0,3.144173258E0
1.479805227E1,-1.861803532E0,-3.686165810E-1,-1.118042469E0,2.202773147E0
1.481798847E1,-9.929883480E-1,1.878285408E-1,6.041097641E-2,1.012400566E0
1.483793704E1,-2.687611580E-1,6.786403656E-1,1.268967152E0,1.463920400E0
1.485788514E1,3.054361343E-1,1.001029015E0,2.799243450E0,2.988496982E0
1.487783381E1,4.087390900E-1,7.985849380E-1,5.320417404E0,5.395521004E0
1.489778982E1,4.314050674E-1,2.188863754E-1,5.876108170E0,5.895987517E0
1.491775837E1,-2.317223549E-1,-7.217836380E-2,4.516937733E0,4.523453487E0
1.493769780E1,-9.414010048E-1,-2.721061707E-1,3.532578945E0,3.665977581E0
1.495764648E1,1.510381699E-1,-1.748080254E-1,3.330207825E0,3.338211277E0
1.497759519E1,1.596247673E0,2.836785316E-1,2.889012814E0,3.312834916E0
1.499753183E1,1.884192944E0,1.546788216E-1,1.965648174E0,2.727247941E0
1.501747997E1,1.036670685E0,-7.871599197E-1,1.861659050E0,2.271581226E0
1.503744109E1,1.273573875E0,-1.024003267E0,1.842554569E0,2.462839915E0
1.505738983E1,1.543214321E0,-1.026418924E0,1.496914864E0,2.382393829E0
1.507733642E1,1.092482090E0,-1.424061775E0,9.870162010E-1,2.048333478E0
1.509728672E1,5.467376709E-1,-1.519446373E0,3.067970276E-3,1.614821592E0
1.511723543E1,2.421274185E-1,-1.294332981E0,-1.232905865E0,1.803879271E0
1.513718404E1,2.215037346E-1,-8.476872444E-1,-1.686174870E0,1.900216635E0
1.515713273E1,1.117439270E-1,-3.667101860E-1,-1.505309105E0,1.553357192E0
1.517707072E1,-2.350573540E-1,-2.228398323E-1,-9.021749496E-1,9.585557836E-1
1.519702999E1,-6.264424324E-1,-3.763363361E-1,-2.690505981E-2,7.312886169E-1
1.521696429E1,-1.002337456E0,-2.533061504E-1,-7.665205002E-1,1.287011289E0
1.523692745E1,-1.031139612E0,1.479337215E-1,-1.985964775E0,2.242585422E0
1.525687630E1,-8.497796059E-1,3.698167801E-1,-2.464248657E0,2.632757352E0
1.527681551E1,-9.549641609E-2,8.017525673E-1,-2.024188042E0,2.179280609E0
1.529677201E1,-1.846508980E-1,6.938629150E-1,-8.205695152E-1,1.090355918E0
1.531672601E1,-7.055583000E-1,4.075779915E-1,-9.011912346E-1,1.214939494E0
1.533666878E1,-8.863532543E-1,6.859903336E-1,-1.120054722E0,1.584527503E0
1.535661937E1,1.737866402E-1,9.602055550E-1,-1.887407303E-1,9.938911245E-1
1.537656826E1,1.438337326E0,9.898753166E-1,2.362897873E0,2.938018680E0
1.539651752E1,1.042290211E0,-2.232108116E-1,3.032696724E0,3.214567058E0
1.541646527E1,-3.173789978E-1,-1.027758598E0,2.438527107E0,2.665226373E0
1.543642536E1,-4.102683067E-1,-1.016862631E0,1.902042389E0,2.195471463E0
1.545635305E1,3.544383049E-1,-6.820406914E-1,1.446960449E0,1.638444555E0
1.547631104E1,7.877573967E-1,-3.056931496E-1,1.384505272E0,1.621994102E0
1.549625991E1,3.175883293E-1,-5.659995079E-1,1.907020569E0,2.014434223E0
1.551619290E1,-1.723790169E-2,-8.583900928E-1,2.826964378E0,2.954464130E0
1.553614802E1,4.351315498E-1,-9.811949730E-1,3.205183029E0,3.380130366E0
1.555610600E1,1.225011826E0,-1.040790558E0,2.853479385E0,3.275094435E0
1.557605439E1,1.766750574E0,-1.022189856E0,2.731415749E0,3.409825756E0
1.559600345E1,1.561351776E0,-1.250299692E0,1.992426872E0,2.823266465E0
1.561595197E1,9.460468292E-1,-1.433661938E0,6.699352264E-1,1.843693131E0
1.563590060E1,5.009849072E-1,-1.467544556E0,-6.713075638E-1,1.689771211E0
1.565584732E1,3.132452965E-1,-1.407787323E0,-1.281272888E0,1.929157323E0
1.567579788E1,2.068711519E-1,-1.494908094E0,-1.557456970E0,2.168690411E0
1.569575274E1,-7.480645180E-2,-1.603518248E0,-2.101545334E0,2.644496089E0
1.571569327E1,-4.576394558E-1,-1.704812050E0,-2.940066814E0,3.429258064E0
1.573563410E1,-4.286741018E-1,-1.728710890E0,-3.532046795E0,3.955699355E0
1.575558294E1,-5.241954327E-2,-1.573912382E0,-3.766711235E0,4.082653735E0
1.577553997E1,3.791928291E-2,-1.378312588E0,-3.731006622E0,3.977636720E0
1.579548044E1,4.756271839E-1,-1.532685280E0,-2.334884644E0,2.833201667E0
1.581543816E1,9.011495113E-1,-1.681070566E0,-1.804972649E0,2.626022649E0
1.583538708E1,1.185223103E0,-1.850570202E0,-1.010649681E0,2.418837872E0
1.585533556E1,1.289408922E0,-1.970081568E0,4.323101044E-2,2.354923708E0
1.587528450E1,2.452133656E0,-2.013995647E0,1.056379318E0,3.344409544E0
1.589522340E1,2.832020521E0,-2.468775272E0,2.368329048E0,4.441190613E0
1.591518487E1,1.636073112E0,-2.895567894E0,2.004773140E0,3.883318684E0
1.593511574E1,2.770245075E-1,-2.745462656E0,6.785993576E-1,2.841620112E0
1.595507135E1,-9.673905373E-2,-2.534447670E0,1.318645477E-2,2.536327526E0
1.597502569E1,2.649610043E-1,-2.403559685E0,4.084978104E-1,2.452381282E0
1.599498203E1,3.633024693E-1,-2.204247475E0,-3.921890259E-2,2.234330713E0
1.601492501E1,5.716183186E-1,-1.503451824E0,-2.248458862E-1,1.624090688E0
1.603486271E1,6.577980518E-1,-1.200054407E0,6.636953354E-1,1.520960340E0
1.605482155E1,2.436869144E-1,-1.313704967E0,2.038247108E0,2.437140810E0
1.607477081E1,3.670885563E-1,-1.416501999E0,4.556317329E0,4.785526045E0
1.609471926E1,8.486762047E-1,-1.405737638E0,6.203065872E0,6.416726254E0
1.611466799E1,7.817397118E-1,-1.197084665E0,4.847056389E0,5.053521971E0
1.613461670E1,5.330016613E-1,-7.114081383E-1,1.740669250E0,1.954513175E0
1.615456966E1,5.416874886E-1,-2.412178516E-1,-8.418712616E-1,1.029737155E0
1.617451426E1,7.543251514E-1,2.864148617E-1,-2.032296658E0,2.186611445E0
1.619446283E1,8.017439842E-1,2.785530090E-1,-1.871722221E0,2.055171348E0
1.621441109E1,2.759788036E-1,1.403293610E-1,-1.197984695E0,1.237345530E0
1.623435026E1,-6.028771400E-2,4.316329956E-2,-1.127843857E0,1.130278481E0
1.625430874E1,4.503011703E-2,7.714176178E-2,-1.699129105E0,1.701475324E0
1.627425741E1,2.162251472E-1,1.137018204E-1,-2.627974987E0,2.639305581E0
1.629419576E1,-4.518151283E-2,-1.195917130E-1,-3.075698853E0,3.078354589E0
1.631415477E1,6.384992599E-2,-3.440713882E-1,-2.646230698E0,2.669269345E0
1.633410307E1,7.781362534E-2,-4.357297421E-1,-1.968560219E0,2.017707784E0
1.635404981E1,-1.765322685E-1,-5.641741753E-1,-2.140280247E0,2.220417906E0
1.637400076E1,-4.703013897E-1,-4.173817635E-1,-2.279896259E0,2.365019638E0
1.639394894E1,-7.517315149E-1,-3.905978203E-1,-1.906407356E0,2.086158176E0
1.641389765E1,-1.003241181E0,-5.464046001E-1,-1.009890556E0,1.524772046E0
1.643384691E1,-8.758006096E-1,-5.555496216E-1,1.887359619E-1,1.054174252E0
1.645379526E1,-7.864322662E-1,-6.684014797E-1,1.391092300E0,1.732158779E0
1.647374366E1,-4.645578861E-1,-3.648986816E-1,2.515715599E0,2.584142034E0
1.649368360E1,-2.373743057E-2,-8.937597275E-3,3.328824043E0,3.328920675E0
1.651363941E1,-4.306579828E-1,-2.921528816E-1,4.469832420E0,4.500024608E0
1.653358070E1,-4.654610157E-1,-4.553244114E-1,5.026966095E0,5.068960682E0
1.655353865E1,4.059100151E-2,-3.367948532E-1,5.188941956E0,5.200018944E0
1.657348687E1,1.014021277E0,-8.298707008E-2,5.850463867E0,5.938270242E0
1.659343558E1,1.981415033E0,-7.256767750E-1,6.344303131E0,6.686014847E0
1.661337389E1,2.418290138E0,-1.353418469E0,5.448642731E0,6.112902449E0
1.663333296E1,2.556752205E0,-1.535708427E0,3.065338135E0,4.276877376E0
1.665328808E1,2.969219208E0,-1.139889479E0,1.357975006E0,3.458280909E0
1.667322847E1,2.912638426E0,-9.254770279E-1,4.791727066E-1,3.093473260E0
1.669317870E1,2.408581734E0,-1.208559155E0,-6.878318787E-1,2.781185699E0
1.671312768E1,1.881307960E0,-1.305150032E0,-2.330409050E0,3.267038810E0
1.673306784E1,1.547115326E0,-1.277960181E0,-3.216246128E0,3.790908494E0
1.675301552E1,1.024426937E0,-1.503160715E0,-3.365831375E0,3.825933027E0
1.677296451E1,8.279852867E-1,-1.545804620E0,-3.117636204E0,3.576971772E0
1.679291495E1,1.302203536E0,-1.285022736E0,-2.869586945E0,3.403167159E0
1.681286175E1,2.131389618E0,-1.031702518E0,-2.888530254E0,3.735082170E0
1.683281866E1,2.427512646E0,-9.634366035E-1,-2.901455879E0,3.903776883E0
1.685276764E1,2.239196777E0,-1.064257860E0,-2.295632362E0,3.378842249E0
1.687270766E1,2.456914425E0,-1.235112429E0,-1.179800034E0,2.992300005E0
1.689266540E1,3.097890377E0,-1.415749311E0,-8.041934967E-1,3.499714000E0
1.691261401E1,3.738608122E0,-1.627980351E0,-1.161005020E0,4.239745673E0
1.693256187E1,3.411847353E0,-2.173094273E0,-1.975712299E0,4.501830757E0
1.695251156E1,2.644845724E0,-2.734739780E0,-2.103175640E0,4.347109194E0
1.697246019E1,2.441377163E0,-3.322382450E0,-1.663235664E0,4.445773327E0
1.699240798E1,2.639632940E0,-3.739730358E0,-9.290637970E-1,4.670803437E0
1.701235738E1,2.858786345E0,-4.034618855E0,-1.726322174E-1,4.947788450E0
1.703230609E1,2.818759680E0,-4.138018608E0,3.719720840E-1,5.020654077E0
1.705225462E1,2.226501942E0,-4.164670944E0,1.015598297E0,4.830448724E0
1.707220215E1,1.699432850E0,-3.880728245E0,2.043496132E0,4.703615648E0
1.709215210E1,1.043724537E0,-3.193095922E0,3.017991066E0,4.515915472E0
1.711210075E1,-9.243416786E-2,-2.532459259E0,3.173206329E0,4.060927527E0
1.713204845E1,-9.967947006E-1,-1.574238777E0,2.907780647E0,3.453551172E0
1.715199775E1,-1.054844618E0,-3.304667473E-1,2.241696358E0,2.499421533E0
1.717194680E1,-1.064789295E0,8.307806253E-1,1.849647522E0,2.290233317E0
1.719188738E1,-3.030357361E-1,1.868600368E0,1.738580704E0,2.570245291E0
1.721184414E1,8.034996986E-1,2.738582134E0,1.803638458E0,3.376174693E0
1.723179263E1,2.010996342E0,3.172594547E0,2.135881424E0,4.321047547E0
1.725173182E1,2.821902752E0,3.184975147E0,1.861306190E0,4.644530392E0
1.727167119E1,2.836728334E0,2.824696302E0,1.336587906E0,4.220474390E0
1.729162027E1,2.904587269E0,2.127033949E0,1.333231926E0,3.839063426E0
1.731156851E1,2.820680380E0,1.370471954E0,1.356116295E0,3.416647858E0
1.733151498E1,1.992136002E0,3.684868813E-1,9.958267212E-1,2.257445301E0
1.735146569E1,4.695312977E-1,-5.280575752E-1,4.844322205E-1,8.567257545E-1
1.737141434E1,-3.918824196E-1,-1.089187860E0,-5.805950165E-1,1.294987490E0
1.739136413E1,-7.124865055E-1,-1.237288237E0,-1.668263912E0,2.195819592E0
1.741131223E1,-3.781275749E-1,-1.134909153E0,-1.886079311E0,2.233448996E0
1.743126084E1,-6.399900913E-1,-1.202113628E0,-1.837487221E0,2.287143148E0
1.745121339E1,-1.306787014E0,-1.342336178E0,-1.868328094E0,2.645790729E0
1.747116711E1,-1.158501863E0,-1.067345381E0,-1.802494049E0,2.393812342E0
1.749112501E1,1.840603352E-1,-4.965181351E-1,-1.723928452E0,1.803423902E0
1.751107291E1,1.489432096E0,2.521784306E-1,-1.307974339E0,1.998198889E0
1.753102242E1,2.123166800E0,2.330706120E-1,-9.651994705E-1,2.343879090E0
1.755097102E1,2.095571518E0,-2.572286129E-1,-9.120020866E-1,2.299855289E0
1.757091882E1,2.093435287E0,-6.545727253E-1,-7.834506035E-1,2.329105323E0
1.759086832E1,1.847843647E0,-9.263398647E-1,-5.002946854E-1,2.126717297E0
1.761081685E1,9.125192165E-1,-1.313429594E0,-9.524540901E-1,1.861439608E0
1.763076481E1,-5.401158333E-2,-1.534322262E0,-1.839246750E0,2.395806891E0
1.765071726E1,-6.987807751E-1,-1.670603752E0,-1.873949051E0,2.605934864E0
1.767066280E1,-1.104894519E0,-1.731350183E0,-1.101789951E0,2.330730884E0
1.769060205E1,-1.616496563E0,-1.715422153E0,-2.586259842E-1,2.371206803E0
1.771055957E1,-2.144807339E0,-1.581064463E0,5.475807190E-2,2.665138233E0
1.773050889E1,-2.779612064E0,-1.804915190E0,-2.678976059E-1,3.325015970E0
1.775045762E1,-3.367293596E0,-1.780190706E0,-1.388443947E0,4.054074704E0
1.777039272E1,-2.892115593E0,-1.403623581E0,-2.158301830E0,3.872048366E0
1.779036284E1,-2.061460257E0,-9.398438931E-1,-2.044363022E0,3.051613524E0
1.781029387E1,-1.984749198E0,-4.047491550E-1,-1.929892540E0,2.797773485E0
1.783025108E1,-1.737478852E0,-5.291438103E-2,-1.742496490E0,2.461285581E0
1.785020081E1,-1.194241643E0,3.322095871E-1,-1.607450008E0,2.029894539E0
1.787014370E1,1.385521889E-2,4.082181454E-1,-6.442193985E-1,7.627926682E-1
1.789008914E1,1.502651215E0,1.534147263E-1,1.395229340E0,2.056249416E0
1.791002712E1,1.253076792E0,-5.946739912E-1,4.124658585E0,4.351625793E0
1.792996936E1,4.121210575E-1,-8.140868545E-1,6.056314468E0,6.124665388E0
1.794992548E1,2.906668186E-1,-2.683739662E-1,4.399301529E0,4.417053965E0
1.796987415E1,2.209982872E-1,6.841742992E-1,1.684042931E0,1.831102211E0
1.798983234E1,-4.225611687E-2,1.456432462E0,-3.305034637E-1,1.494059448E0
1.800979001E1,-6.556551456E-1,1.910213351E0,-6.185970306E-1,2.112217083E0
1.802973790E1,-7.406785488E-1,2.255920410E0,-3.742332458E-1,2.403712157E0
1.804967797E1,-5.743651390E-1,2.652416706E0,-5.993404388E-1,2.779283839E0
1.806962859E1,-2.582418919E-1,3.498933077E0,-1.208563805E0,3.710774585E0
1.808957571E1,2.296116352E-1,4.633352280E0,-1.801251888E0,4.976462922E0
1.810953234E1,5.210611820E-1,4.983317852E0,-2.443322659E0,5.574476404E0
1.812948172E1,6.252748966E-1,4.697217464E0,-3.496052742E0,5.888735465E0
1.814942968E1,1.783452511E0,4.898281097E0,-4.404086113E0,6.824209482E0
1.816936097E1,2.590754747E0,4.585892677E0,-3.194253922E0,6.160006487E0
1.818931434E1,1.941258669E0,3.045431137E0,1.688194275E-1,3.615471758E0
1.820925841E1,3.964653015E-1,7.595348358E-1,2.815545082E0,2.943020899E0
1.822920729E1,-5.934135914E-1,-2.246466160E0,3.603553772E0,4.287697481E0
1.824915580E1,7.044267654E-2,-5.014476776E0,8.544015884E-1,5.087233195E0
1.826910477E1,-1.625128269E0,-4.070312500E0,3.801490784E0,5.801708190E0
1.828905318E1,-1.159429550E-2,-4.529885292E0,1.963725662E1,2.015296114E1
1.830900184E1,7.414330006E0,-5.635850906E0,2.721064758E1,2.876029288E1
1.832895078E1,1.515538025E1,-4.042456627E0,2.050778580E1,2.581852599E1
1.834890038E1,1.905304718E1,1.182998657E0,7.947490215E0,2.067802441E1
1.836884816E1,1.209452820E1,3.402952671E0,-3.241638660E0,1.297558941E1
1.838879677E1,4.840249538E0,1.253547668E0,-8.631056786E0,9.974694912E0
1.840874450E1,1.305669785E0,8.668103218E-1,-7.739174366E0,7.896262001E0
1.842869344E1,-1.875822544E0,-4.028201103E-1,-3.679788113E0,4.149917446E0
1.844864168E1,-3.624498844E0,-1.120322704E0,-2.540345192E0,4.565683796E0
1.846859127E1,-3.968415260E0,-1.103050947E0,-4.839813232E0,6.355220940E0
1.848853249E1,-4.072745800E0,-9.599609375E-1,-7.632164001E0,8.703947995E0
1.850850588E1,-3.948681831E0,-1.009537458E0,-9.565552711E0,1.039764650E1
1.852845408E1,-4.091570854E0,-1.534139991E0,-9.526918411E0,1.048125527E1
1.854838460E1,-4.647105694E0,-1.937631607E0,-8.260170937E0,9.673697921E0
1.856833382E1,-4.930508614E0,-1.926247835E0,-7.610127926E0,9.270080526E0
1.858830082E1,-4.638943672E0,-1.809822917E0,-8.491548538E0,9.843863772E0
1.860824951E1,-3.802633524E0,-1.744261861E0,-9.609594345E0,1.048078120E1
1.862816447E1,-3.136621475E0,-1.640284419E0,-1.075393772E1,1.132148858E1
1.864814677E1,-3.318227530E0,-1.667312503E0,-1.117950726E1,1.178015057E1
1.866807638E1,-4.333957195E0,-1.659117222E0,-1.096793365E1,1.190929988E1
1.868803312E1,-4.618101120E0,-1.284057379E0,-1.020641994E1,1.127593319E1
1.870798507E1,-4.496608734E0,-2.530517578E-1,-8.969328880E0,1.003655249E1
1.872794007E1,-6.445713997E0,5.078969002E-1,-7.474692345E0,9.883127736E0
1.874789063E1,-7.989363194E0,4.537544250E-1,-6.298322678E0,1.018354977E1
1.876783920E1,-3.089403391E0,4.583504200E-1,-3.547949791E0,4.726779679E0
1.878777633E1,8.054383278E0,8.178050518E-1,4.510826111E0,9.267655976E0
1.880773613E1,1.290144920E1,-1.698464155E0,1.589082146E1,2.053899653E1
1.882768486E1,1.308527374E1,-4.369953156E0,2.666305161E1,3.002064624E1
1.884763339E1,2.006931114E1,-5.911199570E0,2.808703041E1,3.502286121E1
1.886758200E1,2.292172432E1,-3.488751888E0,2.498491287E1,3.408552049E1
1.888753069E1,1.824429321E1,7.614469528E-2,1.604272461E1,2.429462998E1
1.890746058E1,1.254935169E1,1.848807096E0,8.406833649E0,1.521772544E1
1.892741354E1,9.592496872E0,3.690948963E0,4.453437328E0,1.120143761E1
1.894737241E1,6.014410973E0,5.257458687E0,3.118931293E0,8.575648291E0
1.896730710E1,1.973378658E0,5.345948219E0,-1.762819290E-2,5.698569684E0
1.898727235E1,-1.506835699E0,4.459351540E0,-2.683586597E0,5.418302963E0
1.900722263E1,-3.058176517E0,1.978081942E0,-3.098972797E0,4.782142216E0
1.902717168E1,-4.502369881E0,7.071719170E-1,-5.099910736E0,6.839628366E0
1.904710454E1,-6.024589062E0,-4.828759432E-1,-6.601914883E0,8.950649287E0
1.906704990E1,-7.133151054E0,-1.192463875E0,-7.186567307E0,1.019561493E1
1.908699912E1,-8.178022385E0,-1.662416220E0,-6.547358036E0,1.060714736E1
1.910695228E1,-8.638444901E0,-1.833089352E0,-6.465942383E0,1.094492384E1
1.912688819E1,-8.339076996E0,-1.690573931E0,-6.900446892E0,1.095510898E1
1.914686224E1,-6.294112206E0,-9.892623425E-1,-7.871433258E0,1.012689241E1
1.916681174E1,-5.068621635E0,-5.540981293E-1,-8.421085358E0,9.844421193E0
1.918674281E1,-4.361984730E0,-2.166745663E-1,-7.716864586E0,8.867009512E0
1.920670945E1,-4.019744873E0,-1.896879673E-1,-6.766575813E0,7.872793571E0
1.922663991E1,-3.767748356E0,-3.000736237E-2,-6.394825459E0,7.422305623E0
1.924658770E1,-1.832592964E0,5.538303852E-1,-6.922827721E0,7.182664458E0
1.926653644E1,7.081365585E-1,1.431402206E0,-7.989926338E0,8.147962479E0
1.928650372E1,1.415359020E0,1.808570385E0,-7.829660416E0,8.159518994E0
1.930645107E1,8.158330917E-1,1.541499853E0,-5.133444786E0,5.421628981E0
1.932640122E1,2.567635298E0,2.275596142E0,-2.023656845E0,3.983249408E0
1.934635036E1,5.251332283E0,2.712335587E0,9.282617569E-1,5.982886007E0
1.936629669E1,6.865308762E0,1.956349850E0,4.089550018E0,8.227040080E0
1.938624766E1,7.362014771E0,3.397698402E-1,8.089474678E0,1.094323104E1
1.940619570E1,6.139999390E0,-6.238937378E-2,1.135022354E1,1.290469137E1
1.942612559E1,5.591018200E0,5.507326126E-2,1.592694950E1,1.687987672E1
1.944609316E1,5.059329510E0,-2.289778709E0,1.871007347E1,1.951683250E1
1.946604189E1,4.966100216E0,-2.828350306E0,1.621887589E1,1.719632669E1
1.948599038E1,4.281697750E0,-2.944369793E0,1.149884605E1,1.261846701E1
1.950592194E1,2.270148754E0,-3.191027641E0,6.587558746E0,7.663691213E0
1.952589053E1,1.811196327E0,-1.262235641E0,2.038871765E0,3.005107157E0
1.954582868E1,5.799207211E0,2.217213631E0,-8.414554596E-2,6.209180383E0
1.956576610E1,8.191144943E0,3.234719276E0,-2.087507248E0,9.050743107E0
1.958571556E1,2.712052822E0,1.282033443E0,-3.100795031E0,4.314367866E0
1.960566625E1,-2.318469763E0,-1.032890797E0,-1.899161816E0,3.170012782E0
1.962562938E1,-3.870827675E0,-1.759709835E0,-2.950779915E0,5.175614717E0
1.964557945E1,-4.453301430E0,-1.836606979E0,-5.917141914E0,7.630045036E0
1.966552810E1,-4.351203918E0,-1.901505947E0,-7.649723530E0,9.003719814E0
1.968547513E1,-4.070789337E0,-1.806753635E0,-7.975212097E0,9.134532967E0
1.970542561E1,-4.670868397E0,-1.836026192E0,-7.865317822E0,9.330124768E0
1.972535542E1,-5.171634197E0,-1.867709637E0,-7.623620510E0,9.399666443E0
1.974530472E1,-4.912732124E0,-1.519691706E0,-7.420825005E0,9.028457429E0
1.976525955E1,-3.610588312E0,-9.747264385E-1,-7.117981911E0,8.040653336E0
1.978520336E1,-2.129287481E0,-4.503350258E-1,-7.067367077E0,7.394886356E0
1.980515010E1,-1.210938215E0,-2.196996212E-1,-7.262262821E0,7.365806172E0
1.982510847E1,-1.442681074E0,6.335783005E-2,-7.415876389E0,7.555168132E0
1.984504731E1,-1.774366379E0,1.723349094E-1,-7.016046047E0,7.238990089E0
1.986501492E1,-1.175717831E0,1.684691906E-1,-6.452223778E0,6.560631522E0
1.988494588E1,-1.962926388E-1,8.664989471E-2,-6.432542801E0,6.436120407E0
1.990491226E1,3.750188351E-1,5.017423630E-2,-6.155858994E0,6.167475702E0
1.992485282E1,8.695662022E-1,-3.321146965E-1,-4.649990559E0,4.742241848E0
1.994480790E1,1.518839359E0,-9.518098831E-1,-1.121585369E0,2.114419257E0
1.996475809E1,4.177367687E0,-5.440344810E-1,2.272064686E0,4.786298387E0
1.998470666E1,6.582740307E0,9.299755096E-3,4.337852955E0,7.883496984E0
2.000465388E1,7.740692616E0,-1.058198452E0,6.850921631E0,1.039101695E1
2.002457625E1,1.166934776E1,-4.005002975E-1,1.432127762E1,1.847790763E1
2.004455289E1,1.391009521E1,4.254565239E-1,1.895570183E1,2.351574779E1
2.006449967E1,8.501572609E0,3.572640419E-1,1.338533497E1,1.586100774E1
2.008445015E1,3.370151997E0,3.180106640E0,5.730535507E0,7.369534580E0
2.010439876E1,3.916246891E0,4.926534653E0,1.417048454E0,6.451027803E0
2.012432926E1,4.549289227E0,4.925734520E0,5.250263214E-1,6.725663214E0
2.014429394E1,2.977745533E0,4.526688099E0,1.334857941E0,5.580297423E0
2.016424426E1,9.781126976E-1,3.866881132E0,1.987722397E0,4.456513712E0
2.018417452E1,-2.737474442E-2,3.528662205E0,7.054901123E-1,3.598600093E0
2.020414254E1,-4.983801842E-1,3.181400537E0,-1.148344040E0,3.418828194E0
2.022407239E1,-4.730010033E-1,2.879822493E0,-2.207494736E0,3.659254097E0
2.024405554E1,-3.392081261E-1,2.325362682E0,-2.372359753E0,3.339231132E0
2.026397290E1,-5.702388287E-1,1.563788176E0,-3.002324581E0,3.432864499E0
2.028391789E1,-1.239468098E0,6.722896099E-1,-3.980400085E0,4.222776258E0
2.030386682E1,-1.863540530E0,-1.265268326E-1,-4.758670807E0,5.112116997E0
2.032381531E1,-2.039071083E0,-6.808962822E-1,-4.853004456E0,5.307832220E0
2.034376400E1,-1.525522470E0,-1.092273951E0,-4.260789871E0,4.655600017E0
2.036372140E1,-1.041492224E0,-1.395960331E0,-3.235481262E0,3.674472792E0
2.038366224E1,-8.351001740E-1,-2.060304403E0,-1.454617500E0,2.656719520E0
2.040363624E1,-1.635332108E-1,-1.869762540E0,-4.268169403E-1,1.924818892E0
2.042356458E1,9.641978741E-1,-1.720732331E0,3.957614899E-1,2.011771471E0
2.044352601E1,1.059801102E0,-1.913563490E0,7.899990082E-1,2.325726131E0
2.046347462E1,1.186859131E0,-1.886587143E0,7.657814026E-1,2.356749202E0
2.048342339E1,1.332643032E-1,-1.732863426E0,-1.893396378E-1,1.748263289E0
2.050338372E1,-8.948168755E-1,-1.601288319E0,-1.585731506E0,2.424740384E0
2.052332134E1,-1.396628380E0,-8.846973181E-1,-2.025370598E0,2.614457159E0
2.054326946E1,-3.898286819E-2,-1.642475128E-1,-1.489048958E0,1.498587237E0
2.056321811E1,1.328926563E0,3.716442585E-1,3.966817856E-1,1.435800022E0
2.058316537E1,2.141386271E0,1.199924946E0,1.476330757E0,2.864420978E0
2.060309645E1,2.889421225E0,1.801462412E0,2.004404068E0,3.951159007E0
2.062306377E1,2.657700539E0,1.794744730E0,1.357716560E0,3.482509879E0
2.064301132E1,2.670736551E0,1.825938463E0,1.308418274E0,3.489819963E0
2.066296140E1,2.558810949E0,1.653655529E0,2.419491768E0,3.890505173E0
2.068291013E1,2.217505693E0,1.185410261E0,3.536082268E0,4.338940745E0
2.070285731E1,1.372284651E0,4.545495510E-1,3.661437988E0,3.936484294E0
2.072280775E1,-1.117093563E-1,3.676913977E-1,2.569037437E0,2.597619930E0
2.074275591E1,2.425065041E-1,6.238036156E-1,1.356907845E0,1.512990170E0
2.076270469E1,7.424583435E-1,8.815238476E-1,7.993803024E-1,1.402618107E0
2.078263502E1,1.426057816E-1,9.282895327E-1,6.537580490E-1,1.144315276E0
2.080260178E1,-1.642601490E-1,9.236973524E-1,1.468639374E-1,9.496142435E-1
2.082253167E1,-5.116667747E-1,8.931510448E-1,-4.510154724E-1,1.123804535E0
2.084248891E1,-1.012175322E0,9.885487556E-1,-1.308341026E0,1.927040157E0
2.086244773E1,-7.026476860E-1,1.169573784E0,-1.665117264E0,2.152726668E0
2.088237762E1,-8.613839149E-1,9.659585953E-1,-1.943783760E0,2.335241650E0
2.090232757E1,-6.080999374E-1,6.545147896E-1,-1.691989899E0,1.913375280E0
2.092227565E1,-6.977603436E-1,3.419954777E-1,-1.236563683E0,1.460452034E0
2.094222410E1,-9.464951754E-1,-1.104884148E-1,-2.089238167E0,2.296296349E0
2.096218984E1,-8.425744772E-1,-4.262561798E-1,-1.817677498E0,2.048310906E0
2.098214008E1,-8.631031513E-1,-6.123797894E-1,-1.495512962E0,1.832079441E0
2.100208885E1,3.784894943E-2,-7.462146282E-1,-1.382708549E0,1.571671641E0
2.102203587E1,9.685757160E-1,-8.275544643E-1,1.106920242E-1,1.278764260E0
2.104198590E1,1.649531603E0,-1.385252237E0,2.281930923E0,3.138006853E0
2.106193366E1,1.721979380E0,-1.713539004E0,3.287994385E0,4.088072404E0
2.108188336E1,1.769856930E0,-1.460004807E0,2.432221413E0,3.343607122E0
2.110183210E1,2.223155737E0,-1.151679039E0,1.892158508E0,3.138319592E0
2.112178091E1,2.349560738E0,-1.031902552E0,1.172203064E0,2.821226428E0
2.114172923E1,2.121410608E0,-9.750697613E-1,-9.294986725E-2,2.336618002E0
2.116167813E1,1.969530106E0,-8.907945156E-1,-6.277074814E-1,2.250906570E0
2.118162633E1,1.567618608E0,-7.446258068E-1,1.728076935E-1,1.744063701E0
2.120157526E1,1.333181381E0,-3.590576649E-1,1.658698082E0,2.158141406E0
2.122152265E1,1.422150373E0,-2.348823547E-1,2.313775063E0,2.726029429E0
2.124147268E1,1.223261118E0,-2.252020836E-1,1.528660774E0,1.970758104E0
2.126142125E1,6.756331921E-1,-2.304608822E-1,-2.251510620E-1,7.485221634E-1
2.128136844E1,7.964766026E-1,-1.110191345E-1,-1.147418976E0,1.401167561E0
2.130131863E1,1.023037672E0,-2.352740765E-1,-1.523180962E0,1.849875729E0
2.132124332E1,8.259983063E-1,-3.243179321E-1,-1.769678116E0,1.979700977E0
2.134121451E1,5.958468914E-1,-2.451210022E-1,-2.071629524E0,2.169508403E0
2.136116450E1,2.047049999E-1,-1.635947227E-1,-2.404393196E0,2.418630607E0
2.138109427E1,-3.396666050E-1,-2.042388916E-1,-2.609323025E0,2.639252465E0
2.140104345E1,-6.274991035E-1,-2.367362976E-1,-2.274015903E0,2.370853755E0
2.142099230E1,-8.242454529E-1,-3.656413555E-1,-1.415096283E0,1.677966525E0
2.144093989E1,-9.055531025E-1,-6.161570549E-1,-1.093887329E0,1.547987541E0
2.146090030E1,-1.331801295E0,-7.446157932E-1,-1.370054722E0,2.050657775E0
2.148085200E1,-1.247049570E0,-5.616471767E-1,-1.943740845E0,2.376701212E0
2.150078287E1,-7.468242645E-1,-1.829223633E-1,-1.865524769E0,2.017768504E0
2.152073539E1,-3.876082897E-1,2.039120197E-1,-1.959543228E0,2.007891920E0
2.154068351E1,-7.771751881E-1,1.817851067E-1,-1.995285988E0,2.149002855E0
2.156063207E1,-1.264550090E0,2.239768505E-1,-1.312340260E0,1.836161626E0
2.158058101E1,-1.257007957E0,3.838667870E-1,-2.321405411E-1,1.334657988E0
2.160057214E1,-1.029128075E0,4.282653332E-1,6.346025467E-1,1.282667604E0
2.162049739E1,-2.621970177E-1,8.332319260E-1,6.841354370E-1,1.109533242E0
2.164045284E1,8.784754276E-1,1.129902840E0,1.246373177E0,1.897852892E0
2.166039355E1,1.461280823E0,7.756080627E-1,3.908582687E0,4.244281816E0
2.168034114E1,1.835864067E0,8.919501305E-2,5.900040627E0,6.179711322E0
2.170029093E1,2.052314281E0,9.995698929E-2,4.986762047E0,5.393494324E0
2.172024166E1,2.313273191E0,2.630305290E-2,3.147699356E0,3.906396798E0
2.174018925E1,2.759984493E0,-7.054400444E-2,2.687659264E0,3.853051152E0
2.176013761E1,2.650507212E0,-4.996929169E-1,2.979073524E0,4.018676468E0
2.178008622E1,1.932607889E0,-1.245706797E0,2.744622231E0,3.580462242E0
2.180003308E1,1.480569243E0,-1.601269007E0,1.734980583E0,2.786809168E0
2.181996484E1,1.523106933E0,-1.802185535E0,3.081188202E-1,2.379635401E0
2.183991333E1,1.753237724E0,-1.810373306E0,-1.048540592E0,2.729602792E0
2.185984766E1,1.750211000E0,-1.613661289E0,-1.909080029E0,3.051512389E0
2.187980200E1,1.597799301E0,-1.699409246E0,-1.819510937E0,2.958306009E0
2.189976005E1,1.224866748E0,-1.861007690E0,-1.490259171E0,2.680395599E0
2.191970915E1,8.790205717E-1,-1.755000114E0,-1.559934139E0,2.507209023E0
2.193965788E1,8.187819719E-1,-1.672206879E0,-1.640898705E0,2.481779265E0
2.195960612E1,5.071651936E-1,-1.463289022E0,-1.981682777E0,2.515054259E0
2.197955494E1,2.161717415E-2,-1.293908119E0,-2.387627602E0,2.715774491E0
2.199950379E1,-2.240074873E-1,-1.241172075E0,-2.073478222E0,2.426932099E0
2.201945268E1,-9.305655956E-2,-9.520988464E-1,-1.651332378E0,1.908415668E0
2.203940154E1,1.678724289E-1,-6.680016518E-1,-1.319196701E0,1.488182548E0
2.205934933E1,2.260305882E-1,-6.506047249E-1,-1.168233871E0,1.356151434E0
2.207929757E1,-2.193948030E-1,-6.467056274E-1,-9.262666702E-1,1.150796330E0
2.209924622E1,-6.682737470E-1,-6.693449020E-1,-1.091346741E0,1.444178004E0
2.211919532E1,-6.494458914E-1,-6.001839638E-1,-7.252941132E-1,1.143701144E0
2.213916228E1,1.662385464E-1,-4.695072174E-1,2.366323471E-1,5.514228407E-1
2.215909189E1,9.279459715E-1,-2.866992950E-1,9.690141678E-1,1.371957969E0
2.217904851E1,9.502924681E-1,-2.863893509E-1,1.150053978E0,1.519111183E0
2.219898951E1,7.632737160E-1,-5.714488029E-1,1.724895477E0,1.970889370E0
2.221895729E1,9.074220657E-1,-5.413684845E-1,2.269488335E0,2.503412060E0
2.223890614E1,1.546468616E0,-3.620839119E-1,1.860817909E0,2.446489981E0
2.225885463E1,2.482584476E0,-2.119202614E-1,1.305458069E0,2.812891155E0
2.227880324E1,2.461908817E0,-3.882794380E-1,7.788486481E-1,2.611199181E0
2.229875144E1,1.629215598E0,-6.419429779E-1,1.416614532E0,2.252383401E0
2.231869992E1,1.528124571E0,-4.293141365E-1,3.263998985E0,3.629485460E0
2.233864870E1,1.510231972E0,-3.673508167E-1,3.121154785E0,3.486739799E0
2.235859755E1,1.439787269E0,-4.902982712E-1,8.839702606E-1,1.759199589E0
2.237854420E1,9.844107628E-1,-4.898867607E-1,-1.314202309E0,1.713528902E0
2.239849477E1,3.205265999E-1,-5.700516701E-1,-2.343505383E0,2.433046174E0
2.241842482E1,4.311236143E-1,-6.117124557E-1,-2.121622562E0,2.249742651E0
2.243837306E1,1.151831865E0,-2.139372826E-1,-1.020005703E0,1.553350392E0
2.245833213E1,1.575768948E0,-7.733249664E-2,-3.338737488E-1,1.612606515E0
2.247826650E1,1.119722605E0,-2.500410080E-1,-5.082082748E-1,1.254820652E0
2.249823801E1,5.744699240E-1,-5.335090160E-1,-1.167530060E0,1.406333532E0
2.251818687E1,2.135484815E-1,-4.668631554E-1,-1.332486153E0,1.427964813E0
2.253811700E1,6.918573380E-2,-4.281783104E-1,-1.234713078E0,1.308678614E0
2.255808412E1,8.352099657E-1,-3.351550102E-1,-9.145631790E-1,1.283094064E0
2.257803326E1,9.939982891E-1,5.068635941E-2,-6.355981827E-1,1.180926228E0
2.259798114E1,2.200676799E-1,4.082679749E-3,-9.181132317E-1,9.441283589E-1
2.261792999E1,1.386153102E-1,2.588610649E-1,-9.129433632E-1,9.590040873E-1
2.263787852E1,3.555464745E-1,5.652794838E-1,-7.783403397E-1,1.025557348E0
2.265782725E1,5.743346810E-1,5.087299347E-1,-7.613425255E-1,1.080883395E0
2.267777635E1,1.040335655E0,4.444947243E-1,-1.895742416E-1,1.147088588E0
2.269772239E1,1.103076458E0,2.520446777E-1,8.482999802E-1,1.414184234E0
2.271767381E1,1.029895067E0,-2.668805122E-1,2.539572716E0,2.753423076E0
2.273762185E1,5.555492043E-1,-4.483175278E-1,2.018720627E0,2.141227800E0
2.275756822E1,6.519213319E-2,-4.974236488E-1,1.253433228E-1,5.170988776E-1
2.277751980E1,7.630899549E-2,9.673118591E-3,-2.181882858E-1,2.313498651E-1
2.279744949E1,7.565929890E-1,-1.729693413E-1,1.403752327E0,1.604017437E0
2.281739806E1,1.221747160E0,-6.240248680E-1,2.867588997E0,3.178858256E0
2.283734642E1,1.159754753E0,-8.834662437E-1,3.227927208E0,3.541900302E0
2.285729531E1,6.705529690E-1,-8.799347878E-1,1.872573853E0,2.174961919E0
2.287724400E1,2.190580368E-1,-8.311109543E-1,5.993928909E-1,1.047856708E0
2.289719188E1,4.447936714E-1,-7.388541698E-1,9.332561493E-2,8.674425426E-1
2.291714517E1,9.207144380E-1,-8.464674950E-1,-2.775831223E-1,1.281122432E0
2.293709004E1,1.026857615E0,-1.155124426E0,-8.913002014E-1,1.784142665E0
2.295705773E1,7.476007938E-1,-1.470755100E0,-1.076511383E0,1.970001084E0
2.297700634E1,2.078477144E-1,-1.652562857E0,-8.727993965E-1,1.880410448E0
2.299695442E1,-5.762338638E-3,-1.585506916E0,-1.342767715E0,2.077712811E0
2.301690128E1,-8.959180117E-2,-1.409467220E0,-2.374772549E0,2.763000035E0
2.303683332E1,1.360355020E-1,-1.279393435E0,-2.944615364E0,3.213426965E0
2.305680036E1,2.491945624E-1,-1.218918800E0,-3.174218178E0,3.409328675E0
2.307674735E1,2.432206869E-1,-1.253179550E0,-3.456493855E0,3.684693346E0
2.309669783E1,4.887128472E-1,-1.233808517E0,-2.419939041E0,2.759932729E0
2.311664656E1,6.502792835E-1,-1.080754757E0,-1.015091419E0,1.619044342E0
2.313659513E1,2.696758509E-1,-1.163615465E0,-1.175929070E0,1.676166815E0
2.315654378E1,-2.494648099E-1,-1.425473452E0,-1.351772308E0,1.980276654E0
2.317649263E1,-1.898570657E-1,-1.655165195E0,-5.128211975E-1,1.743158946E0
2.319644120E1,4.071593285E-2,-1.519242287E0,1.095561981E-1,1.523731431E0
2.321638989E1,2.935580015E-1,-1.220178127E0,3.008413315E-1,1.290548902E0
2.323633903E1,9.922683239E-1,-7.478876114E-1,2.791242599E-1,1.273515865E0
2.325628767E1,1.736508727E0,-3.835170269E-1,-7.243165970E-1,1.920203740E0
2.327623649E1,1.549955845E0,-4.765772820E-2,-9.863309860E-1,1.837793023E0
2.329617016E1,2.092154026E0,-1.115908623E-1,1.726983070E0,2.715148525E0
2.331611438E1,3.053069592E0,-3.875842094E-1,6.826954842E0,7.488575823E0
2.333607991E1,2.759144545E0,-1.435396671E0,9.751093864E0,1.023509032E1
2.335603068E1,3.938059568E0,-1.974935889E0,9.686763763E0,1.064152607E1
2.337597965E1,6.180093288E0,-1.565666080E0,8.048303604E0,1.026742686E1
2.339592582E1,4.858076096E0,-2.482398272E0,6.844079018E0,8.752406648E0
2.341587703E1,4.997458458E-1,-4.589244843E0,8.274933815E0,9.475518127E0
2.343582576E1,-1.457610607E0,-4.364530087E0,9.089988708E0,1.018830929E1
2.345577437E1,7.153260708E-1,-9.312765598E-1,3.575163841E0,3.763079046E0
2.347572298E1,1.828972340E0,2.101816416E0,-3.638495445E0,4.582730755E0
2.349567098E1,-1.218391895E0,2.233951092E0,-5.516117096E0,6.074748069E0
2.351561975E1,-3.386140347E0,1.787891388E0,-6.545106411E0,7.582936106E0
2.353558920E1,-3.773730278E0,1.751421452E0,-7.871021748E0,8.902892826E0
2.355551709E1,-4.474877834E0,1.260658264E0,-9.307555199E0,1.040405568E1
2.357546578E1,-5.087455750E0,2.680349350E-1,-9.910374641E0,1.114314023E1
2.359541830E1,-6.096434593E0,-1.178114653E0,-7.793770313E0,9.964804292E0
2.361536394E1,-6.441117287E0,-1.552345514E0,-4.962017059E0,8.277643493E0
2.363531218E1,-3.725963831E0,-8.448703289E-1,-3.726104736E0,5.336709553E0
2.365525908E1,8.178570271E-1,9.946413040E-1,-4.097149372E0,4.294744977E0
2.367520984E1,2.290513754E0,2.498123169E0,-4.368988991E0,5.529478947E0
2.369515768E1,4.415888786E-1,1.210480213E0,-3.336172104E-1,1.331000949E0
2.371510442E1,1.552526951E-1,-5.930352211E-1,6.367280006E0,6.396721727E0
2.373505494E1,5.448535919E0,-1.634112835E0,1.305738068E1,1.424261418E1
2.375500371E1,1.446257782E1,-1.498543262E0,1.930863571E1,2.417095782E1
2.377495273E1,1.355642223E1,-2.695157051E0,1.947389603E1,2.388039116E1
2.379490125E1,8.246140480E0,-4.888470173E0,1.310004997E1,1.623290740E1
2.381484962E1,6.120068073E0,-5.070885181E0,7.696754456E0,1.106386636E1
2.383479810E1,4.655885696E0,-2.277975798E0,4.416519642E0,6.809705654E0
2.385474684E1,4.420388222E0,-1.500490427E0,4.600247860E0,6.553898376E0
2.387469606E1,5.047430515E0,-5.780973434E-1,4.693567276E0,6.916670089E0
2.389464430E1,2.570987225E0,-8.716778755E-1,2.200779915E0,3.494743175E0
2.391459319E1,-2.019258499E0,-1.670582771E0,-1.393192291E0,2.968035789E0
2.393454192E1,-5.047967434E0,-2.417640448E0,-3.538448572E0,6.621750437E0
2.395449041E1,-5.201604843E0,-2.448341370E0,-6.174808502E0,8.436784248E0
2.397443727E1,-4.394034386E0,-1.741031647E0,-8.087397575E0,9.367215644E0
2.399438779E1,-4.091814518E0,-1.620543242E0,-8.249992371E0,9.350480232E0
2.401433636E1,-4.515716553E0,-2.334267855E0,-7.780827045E0,9.294179464E0
2.403428330E1,-4.747799873E0,-2.835709333E0,-7.466498375E0,9.291471845E0
2.405423362E1,-5.102392197E0,-3.061501980E0,-7.655371189E0,9.695973832E0
2.407418292E1,-4.827063560E0,-3.013810396E0,-7.679149151E0,9.557872535E0
2.409413079E1,-3.075767040E0,-2.662048578E0,-7.830958843E0,8.824441168E0
2.411407993E1,-1.646825552E0,-2.468258619E0,-7.361915588E0,7.937388496E0
2.413402830E1,-1.707380056E0,-2.677088022E0,-7.457037449E0,8.104896943E0
2.415397715E1,-1.850140572E0,-2.781989336E0,-7.476179123E0,8.188756870E0
2.417392612E1,-7.344031334E-1,-2.246425390E0,-8.328420639E0,8.657272396E0
2.419387420E1,5.013766289E-1,-1.975676537E0,-8.107502937E0,8.359801444E0
2.421382298E1,2.499884367E0,-1.199592590E0,-5.691102982E0,6.330647469E0
2.423377171E1,3.699151039E0,-1.012606144E0,1.458885670E0,4.103344613E0
2.425372019E1,4.689784050E0,-1.175547600E0,8.100358963E0,9.433546625E0
2.427365009E1,6.269848347E0,-9.192962646E-1,1.414320469E1,1.549794641E1
2.429359926E1,1.018529606E1,1.357731819E0,2.291723061E1,2.511539668E1
2.431353461E1,9.931900024E0,3.276166916E-1,2.546610260E1,2.733628271E1
2.433351605E1,7.175146103E0,3.039073944E0,1.461365891E1,1.656133203E1
2.435344477E1,4.501592636E0,5.864706516E0,5.849863052E0,9.427619875E0
2.437341323E1,4.733643532E0,4.620999336E0,5.963784695E0,8.906612366E0
2.439336147E1,5.142608166E0,3.060856819E0,5.595989227E0,8.193311824E0
2.441329198E1,3.804077387E0,2.287187576E0,6.190140724E0,7.617090912E0
2.443324018E1,-1.882245541E-1,9.356176853E-1,4.616763115E0,4.714372768E0
2.445318883E1,-2.826342106E0,4.187316895E-1,-5.602822304E-1,2.911608165E0
2.447313780E1,-3.570261240E0,5.070719719E-1,-6.409261703E0,7.354082056E0
2.449308576E1,-4.126048088E0,3.144998550E-1,-1.028266430E1,1.108405919E1
2.451305305E1,-4.133092880E0,-1.135771751E0,-1.091254807E1,1.172416903E1
2.453300182E1,-4.311575890E0,-2.986686707E0,-8.690490723E0,1.015059669E1
2.455295128E1,-5.422555923E0,-4.051810265E0,-6.075349808E0,9.095666795E0
2.457289916E1,-6.137922287E0,-4.753317356E0,-5.875124931E0,9.735769556E0
2.459284817E1,-5.320097923E0,-4.429729462E0,-6.946927547E0,9.807433271E0
2.461279221E1,-4.290297508E0,-4.226012230E0,-7.623315811E0,9.714976893E0
2.463272686E1,-3.422171116E0,-3.965506554E0,-7.652483940E0,9.273457167E0
2.465268383E1,-3.472046375E0,-3.429074287E0,-7.784708977E0,9.187782668E0
2.467264143E1,-3.365454197E0,-2.750124931E0,-6.804841518E0,8.074362958E0
2.469259097E1,-1.984690547E0,-1.828843117E0,-6.513933659E0,7.050886144E0
2.471253964E1,-6.846115589E-1,-7.575480938E-1,-6.271739006E0,6.354312100E0
2.473248854E1,-4.715635777E-1,-2.112114429E-1,-6.217761993E0,6.239194394E0
2.475242801E1,6.159038544E-1,-2.997975349E-1,-4.285251617E0,4.339654081E0
2.477238596E1,2.689635754E0,-4.782810211E-1,-1.011449814E0,2.913060924E0
2.479233434E1,5.479792595E0,-5.503435135E-1,2.760954857E0,6.160671764E0
2.481228175E1,9.419261932E0,-5.326271057E-3,9.662758827E0,1.349412583E1
2.483223195E1,1.429252815E1,2.338718414E0,2.269067383E1,2.691863005E1
2.485218025E1,1.296175861E1,-6.225748062E-1,2.676424217E1,2.974423381E1
2.487212815E1,7.952485085E0,1.535349369E0,1.579956055E1,1.775458899E1
2.489207778E1,6.194454670E0,4.016359806E0,9.224829674E0,1.181524004E1
2.491202640E1,6.318314552E0,3.790923357E0,9.528864861E0,1.204539182E1
2.493197426E1,4.724699497E0,3.679224968E0,6.688105583E0,8.977206581E0
2.495192991E1,1.803989172E0,2.981513023E0,4.321041107E0,5.551143404E0
2.497187254E1,-4.783420563E-1,3.003777027E0,5.688629150E-1,3.094364647E0
2.499181181E1,-2.111839294E0,2.110585690E0,-2.892126083E0,4.156781260E0
2.501176984E1,-3.531677485E0,1.512696743E0,-4.432513714E0,5.865848201E0
2.503170923E1,-4.071631432E0,6.672878265E-1,-5.621013641E0,6.972750527E0
2.505165765E1,-4.093595982E0,-6.113314629E-2,-7.664390564E0,8.689312288E0
2.507161507E1,-4.268675327E0,-6.049351692E-1,-8.879448891E0,9.870772422E0
2.509154618E1,-4.259758949E0,-1.631939411E0,-8.654525757E0,9.783127753E0
2.511149475E1,-4.044257164E0,-2.302493095E0,-7.411952019E0,8.751829705E0
2.513144324E1,-3.241165638E0,-2.507996798E0,-6.547978878E0,7.724715530E0
2.515140192E1,-2.414011240E0,-2.330941200E0,-6.901316643E0,7.673910903E0
2.517134632E1,-2.047469616E0,-2.239884853E0,-7.157105923E0,7.773890993E0
2.519128927E1,-1.751593590E0,-2.189109087E0,-7.609476089E0,8.109525575E0
2.521124390E1,-1.304157019E0,-1.876889229E0,-7.421980858E0,7.765908740E0
2.523119050E1,-1.295808077E0,-1.540365934E0,-7.150749207E0,7.428664752E0
2.525115261E1,-5.358183384E-1,-1.096530437E0,-6.961952686E0,7.068116121E0
2.527110250E1,-1.833961010E-1,-1.013854980E0,-4.868941307E0,4.976758534E0
2.529104161E1,-5.708723068E-1,-1.017508268E0,-4.435788155E0,4.586658350E0
2.531099870E1,-1.450846434E0,-8.929228783E-1,-3.774733067E0,4.141361656E0
2.533094819E1,-6.558768749E-1,4.805276394E-1,-1.201494694E0,1.450748354E0
2.535089726E1,3.009260893E0,2.330526114E0,6.414197922E0,7.458480949E0
2.537084174E1,4.606913567E0,5.490419865E-1,1.662669563E1,1.726186859E1
2.539078390E1,5.076736450E0,-4.193756580E-1,1.717615128E1,1.791561614E1
2.541074325E1,4.313675880E0,1.498094797E0,1.083823395E1,1.176092695E1
2.543069150E1,3.076786995E0,3.223569393E0,6.655360222E0,8.009484224E0
2.545063107E1,1.497819662E0,3.453940868E0,5.491982460E0,6.658456473E0
2.547058902E1,4.101366997E-1,3.809154034E0,4.467779160E0,5.885483598E0
2.549053779E1,-1.317510605E-1,3.977534771E0,2.897781372E0,4.922933889E0
2.551047840E1,-4.305028915E-2,3.998092175E0,1.011038780E0,4.124171890E0
2.553043493E1,8.022620678E-1,3.527554512E0,-3.096399307E-1,3.630859698E0
2.555037448E1,1.402849197E0,3.107562542E0,-9.945678711E-1,3.551632874E0
2.557031351E1,1.129396200E0,2.316591978E0,-1.578698635E0,3.022320888E0
2.559026255E1,1.628360748E-1,1.126490355E0,-1.890683174E0,2.206848198E0
2.561021364E1,-6.908563375E-1,-9.709596634E-2,-1.778152466E0,1.910114211E0
2.563015995E1,-5.815985203E-1,-6.304633617E-1,-2.087928772E0,2.257252189E0
2.565010902E1,-1.975681782E-1,-5.453541279E-1,-2.634488106E0,2.697586308E0
2.567005792E1,-1.457726955E-1,-4.622604847E-1,-3.280430317E0,3.316045461E0
2.569000608E1,-6.754069328E-1,-6.507396698E-1,-2.824354172E0,2.976006238E0
2.570995811E1,-1.240827680E0,-8.628604412E-1,-1.745008469E0,2.308513814E0
2.572990352E1,-7.896718979E-1,-6.670570374E-1,-1.091256142E0,1.503125665E0
2.574985219E1,1.091766357E-2,-5.287828445E-1,-5.005226135E-1,7.281849893E-1
2.576980127E1,-3.277266026E-2,-7.239491940E-1,9.560909271E-1,1.199702606E0
2.578974922E1,-5.080207586E-1,-1.079430342E0,2.611784935E0,2.871354297E0
2.580969787E1,4.872772694E-1,-8.972067833E-1,3.282475471E0,3.437595725E0
2.582964622E1,1.903715968E0,-3.958153725E-1,2.878294945E0,3.473526462E0
2.584959548E1,1.860635519E0,6.639194489E-2,2.164696693E0,2.855220517E0
2.586955151E1,9.521377087E-1,-1.756944656E-1,2.235134125E0,2.435828261E0
2.588950104E1,1.921195984E-1,-4.148857594E-1,3.324790955E0,3.356080307E0
2.590945943E1,8.004039526E-1,-3.658092022E-1,3.887871742E0,3.986227483E0
2.592940806E1,1.492573500E0,-2.496802807E-1,2.789423943E0,3.173484178E0
2.594934996E1,1.901805758E0,-2.851092815E-1,5.598192215E-1,2.002885420E0
2.596930561E1,1.792463541E0,-3.678240776E-1,-1.525959969E0,2.382598146E0
2.598925407E1,1.439752340E0,-4.020471573E-1,-2.181719780E0,2.644698455E0
2.600920299E1,1.316198230E0,-5.845186710E-1,-1.607104778E0,2.157967939E0
2.602914209E1,1.859880567E0,-4.919147491E-1,-1.007224560E0,2.171551785E0
2.604910024E1,1.888307095E0,-3.761277199E-1,-1.036146641E0,2.186498481E0
2.606904896E1,1.406106114E0,-6.569013596E-1,-1.953446865E0,2.494916523E0
2.608899651E1,7.371141911E-1,-5.461673737E-1,-2.903371811E0,3.044865186E0
2.610894609E1,1.421669722E-1,-6.540277004E-1,-2.755480766E0,2.835601865E0
2.612889476E1,-2.488197088E-1,-8.032732010E-1,-2.524358749E0,2.660741659E0
2.614884097E1,1.746506691E-1,-5.038361549E-1,-2.061180115E0,2.129041379E0
2.616879198E1,8.565521240E-1,-6.534814835E-2,-2.220610142E0,2.380979068E0
2.618874095E1,6.811560392E-1,1.757578850E-1,-2.350035667E0,2.453065841E0
2.620868928E1,-8.136034012E-4,1.550989151E-1,-1.188184738E0,1.198265124E0
2.622863785E1,-5.411387682E-1,-1.089220047E-1,2.167587280E-1,5.930257294E-1
2.624858666E1,-4.374865294E-1,-4.138000011E-1,8.720951080E-1,1.059799406E0
2.626853588E1,8.247220516E-2,-3.764638901E-1,1.003293037E0,1.074766786E0
2.628848412E1,9.302262068E-1,1.414442062E-2,1.346661568E0,1.636770674E0
2.630843261E1,1.064707875E0,2.258534431E-1,1.436191559E0,1.802015214E0
2.632838122E1,7.609778643E-1,1.099581718E-1,1.107857704E0,1.348527642E0
2.634832828E1,4.449342489E-1,-1.212882996E-2,1.142704010E0,1.226330318E0
2.636827880E1,1.007775903E0,-1.396961212E-1,3.009762764E0,3.177073995E0
2.638822786E1,1.869046926E0,-5.279669762E-1,4.950605392E0,5.317948786E0
2.640817878E1,1.563897491E0,-1.200253963E0,4.410405159E0,4.830948003E0
2.642812471E1,7.450691462E-1,-1.704863548E0,2.296848297E0,2.955875480E0
2.644807336E1,5.234197378E-1,-1.709902287E0,4.178104401E-1,1.836382208E0
2.646802010E1,7.088999748E-1,-1.586040258E0,-3.764333725E-1,1.777572772E0
2.648797082E1,1.202540994E0,-1.701361179E0,-2.869415283E-1,2.103109637E0
2.650791931E1,1.339255095E0,-1.862125397E0,-1.000041962E-1,2.295891121E0
2.652786840E1,9.615820646E-1,-2.053604841E0,-1.203737259E-1,2.270775802E0
2.654779830E1,5.633389950E-1,-2.113740444E0,-4.087219238E-1,2.225377069E0
2.656774723E1,1.904045343E-1,-2.143883944E0,-9.431133270E-1,2.349884039E0
2.658769523E1,1.621648073E-1,-1.925978899E0,-1.264609337E0,2.309746505E0
2.660766292E1,4.161144495E-1,-1.560015678E0,-1.356742859E0,2.108921842E0
2.662761182E1,3.225562572E-1,-1.539130449E0,-1.369445801E0,2.085269019E0
2.664754093E1,-3.405907154E-1,-1.535406113E0,-1.590454102E0,2.236742769E0
2.666748478E1,-5.713799596E-1,-1.627605200E0,-2.049405098E0,2.678737576E0
2.668745744E1,-2.684553862E-1,-1.416067839E0,-1.925340176E0,2.405047029E0
2.670740605E1,4.671515226E-1,-7.088699341E-1,-7.527790070E-1,1.134637987E0
2.672735266E1,9.652976990E-1,-3.498582840E-1,4.916000366E-2,1.027918855E0
2.674730347E1,4.349119663E-1,-8.180570602E-1,-4.973888397E-2,9.278144905E-1
2.676725183E1,1.041572094E-1,-1.273477793E0,-8.330726624E-2,1.280443093E0
2.678719861E1,2.407664061E-1,-9.770154953E-1,9.887924194E-1,1.410758019E0
2.680714913E1,8.725719452E-1,-5.992994308E-1,2.288958549E0,2.521878833E0
2.682709790E1,1.196838856E0,-6.091084480E-1,2.478150368E0,2.818628318E0
2.684704676E1,1.081257820E0,-8.704409599E-1,2.310378075E0,2.695298274E0
2.686699537E1,1.137325525E0,-1.071135759E0,2.873248100E0,3.270534484E0
2.688692558E1,1.698240757E0,-1.148649693E0,4.431365013E0,4.882664607E0
2.690687464E1,2.160302162E0,-1.494469881E0,5.199498177E0,5.825386420E0
2.692682264E1,1.688928962E0,-1.663147688E0,4.566636086E0,5.145163399E0
2.694678752E1,1.270738840E0,-1.921892166E0,3.363516808E0,4.076970936E0
2.696673996E1,1.287934899E0,-1.866133451E0,2.186676979E0,3.150045488E0
2.698668555E1,1.315512776E0,-1.746838570E0,6.993322372E-1,2.295884237E0
2.700663567E1,1.329121351E0,-1.522384167E0,-6.963319778E-1,2.137544231E0
2.702658468E1,1.397117853E0,-1.261843443E0,-1.551307678E0,2.439414414E0
2.704653142E1,1.061015844E0,-1.230141640E0,-1.638413906E0,2.307250139E0
2.706648190E1,4.763274491E-1,-1.447880030E0,-1.451982975E0,2.105112581E0
2.708643072E1,2.945277989E-1,-1.607270002E0,-1.156285286E0,2.001764009E0
2.710637737E1,5.530040264E-1,-1.550140619E0,-9.864931107E-1,1.918832471E0
2.712632789E1,8.823428154E-1,-1.443605423E0,-5.385255814E-1,1.775538021E0
2.714627080E1,1.044226766E0,-1.406633854E0,-4.587821960E-1,1.810941589E0
2.716622503E1,9.650838375E-1,-1.077672005E0,-5.821399689E-1,1.559375101E0
2.718617400E1,5.339574814E-1,-1.128806114E0,-2.308921814E-1,1.269891741E0
2.720612257E1,2.900687456E-1,-1.212117195E0,5.932006836E-1,1.380309756E0
2.722607122E1,3.096565008E-1,-1.276411057E0,7.689371109E-1,1.521964722E0
2.724602003E1,1.785576642E-1,-1.199599266E0,7.152633667E-1,1.408020924E0
2.726596852E1,2.561095357E-1,-1.392278671E0,1.377509117E0,1.975237545E0
2.728591721E1,6.823146939E-1,-1.606805325E0,2.249254227E0,2.847195334E0
2.730584698E1,9.157083035E-1,-1.791179657E0,2.254789352E0,3.021741432E0
2.732581439E1,3.634290695E-1,-2.167769432E0,5.549178123E-1,2.266988923E0
2.734576515E1,-4.239215553E-1,-2.021928310E0,-1.758443832E0,2.712937207E0
2.736571022E1,-3.232419491E-3,-1.304516792E0,-1.258605003E0,1.812694421E0
2.738566099E1,1.136281729E0,-1.343901157E0,1.826497555E0,2.536395041E0
2.740560947E1,1.367964625E0,-1.871331215E0,3.775871277E0,4.430622037E0
2.742555617E1,8.097194433E-1,-2.137725353E0,2.659673691E0,3.507047106E0
2.744550698E1,2.314772606E0,-2.987216234E0,1.168474197E0,3.955624476E0
2.746545506E1,3.914500952E0,-1.850161552E-1,-7.891654968E-1,3.997540601E0
2.748540395E1,1.469122410E0,-7.498149872E-1,1.387003899E0,2.155069137E0
2.750535223E1,1.190338492E0,-2.316696644E0,1.633391857E0,3.074403686E0
2.752530117E1,7.506234050E-1,-2.009229660E0,1.039476395E0,2.383474459E0
2.754524961E1,-3.323727250E-1,-1.948629379E0,-2.975807190E-1,1.999045365E0
2.756519879E1,-2.543932796E-1,-1.639555454E0,-3.810653687E-1,1.702371535E0
2.758514712E1,3.685195446E-1,-1.364401817E0,1.084356308E-1,1.417447445E0
2.760509585E1,5.186870098E-1,-1.207642555E0,6.232852936E-1,1.454620677E0
2.762504267E1,4.217571020E-2,-1.396940708E0,4.129886627E-3,1.397583339E0
2.764498440E1,-1.141119003E-2,-1.395845413E0,1.693148613E-1,1.406123094E0
2.766494184E1,-1.310483217E-1,-1.264374256E0,-8.453845978E-2,1.273955523E0
2.768487189E1,-6.780463457E-2,-1.343913555E0,3.009748459E-1,1.378871629E0
2.770483889E1,8.133769035E-3,-1.553652763E0,1.006689548E0,1.851304112E0
2.772481228E1,-3.369116783E-2,-1.630610466E0,-4.044137001E-1,1.680349972E0
2.774471894E1,-1.336729527E-2,-1.569214821E0,1.203453541E0,1.977603161E0
2.776466596E1,-4.983246326E-3,-1.273712158E0,2.043812275E0,2.408222604E0
2.778461758E1,-3.833085895E-1,-1.272015095E0,2.090658665E0,2.477055011E0
