"Time (s)","Linear Acceleration x (m/s^2)","Linear Acceleration y (m/s^2)","Linear Acceleration z (m/s^2)","Absolute acceleration (m/s^2)"
1.347280050E-1,3.483059406E-1,-1.523208618E-2,3.152899742E-1,4.700604350E-1
1.546805590E-1,3.093094826E-1,-3.894901276E-2,6.382875443E-1,7.103522864E-1
1.746307120E-1,2.138209343E-1,-1.801743507E-1,4.356145859E-1,5.176313901E-1
1.945499820E-1,6.989955902E-2,7.827281952E-3,8.067369461E-2,1.070301812E-1
2.145134400E-1,6.402730942E-2,1.924948692E-1,-1.061863899E-1,2.289744974E-1
2.344812940E-1,1.011905670E-1,6.068038940E-2,8.915901184E-3,1.183263868E-1
2.544314470E-1,1.127560139E-1,-5.179786682E-2,5.120706558E-2,1.342352459E-1
2.743812740E-1,5.949012041E-1,1.741981506E-1,2.196125984E-1,6.576337368E-1
2.943313460E-1,7.053024769E-1,3.724384308E-1,1.791267395E-1,8.174645909E-1
3.142811740E-1,2.998530865E-1,4.395651817E-1,-3.430166245E-1,6.330796373E-1
3.342315710E-1,-7.224106789E-1,6.096224785E-1,-6.618981361E-1,1.153960960E0
3.541821310E-1,-2.092643499E0,6.831707954E-1,-5.166730881E-1,2.261156835E0
3.741317550E-1,-1.219658136E0,3.858394623E-1,-7.921600342E-2,1.281683750E0
3.940819490E-1,1.656503439E0,4.053721428E-1,-2.730016708E-1,1.727095866E0
4.140320610E-1,2.580516577E0,3.637237549E-1,-4.401178360E-1,2.642927256E0
4.339639850E-1,2.497700691E0,-8.464670181E-2,-3.503732681E-1,2.523575882E0
4.539204050E-1,1.841997147E0,-3.560914993E-1,7.720661163E-2,1.877688873E0
4.738523690E-1,6.893618107E-1,-2.416892052E-1,1.046800613E-1,7.379642899E-1
4.938331210E-1,1.554677486E-1,-2.843916416E-1,-2.224798203E-1,3.931235138E-1
5.137810370E-1,3.331189156E-1,-4.021871090E-1,-2.816762924E-1,5.933499947E-1
5.337146300E-1,-3.745830059E-1,-7.316875458E-1,-1.903057098E-2,8.222172800E-1
5.536647420E-1,-7.332174778E-1,-9.830648899E-1,5.680408478E-1,1.351552756E0
5.736167260E-1,-6.810624599E-1,-8.130800724E-1,1.061680794E0,1.500703630E0
5.935503590E-1,-2.345468998E-1,-7.190167904E-1,9.386873245E-1,1.205458953E0
6.135335530E-1,3.888752460E-1,-7.919490337E-1,8.993148804E-4,8.822743552E-1
6.334655180E-1,5.464166403E-1,-9.494223595E-1,-7.896118164E-1,1.350355798E0
6.534150600E-1,4.102410376E-1,-8.196232319E-1,-1.147705078E0,1.468777348E0
6.733672070E-1,1.384399652E0,8.280143738E-1,4.275894165E-2,1.613690964E0
6.933347760E-1,1.117579341E0,1.319834948E0,5.112562180E-1,1.803421967E0
7.132848470E-1,7.445133924E-1,9.626460075E-2,2.135868073E-1,7.805039328E-1
7.332303620E-1,5.007026792E-1,-6.253788471E-1,1.187810898E-1,8.098832154E-1
7.531680640E-1,1.641118526E-1,-4.617266655E-1,-6.220235825E-1,7.918570268E-1
7.731063350E-1,4.619540572E-1,7.711536884E-1,-9.055070877E-1,1.275939908E0
7.930855010E-1,7.293074131E-1,2.227038860E0,-2.239542007E-1,2.354091517E0
8.130354500E-1,1.443650365E0,2.329929352E0,3.621921539E-1,2.764756828E0
8.329836500E-1,1.623131514E0,1.225269079E0,8.155746460E-1,2.191118945E0
8.529360820E-1,1.212934256E0,2.757904530E-1,7.645998001E-1,1.460096824E0
8.728856250E-1,7.249100208E-1,4.818165302E-1,6.667671204E-1,1.096457979E0
8.928358190E-1,5.324839950E-1,1.752887964E-1,-2.484149933E-1,6.131683096E-1
9.127860120E-1,2.813767791E-1,1.866996288E-2,-2.986650467E-1,4.107581642E-1
9.327361250E-1,-6.592782140E-1,-1.133463621E0,-5.345458984E-1,1.416025021E0
9.526863590E-1,-1.396248341E0,-2.067859173E0,-2.487316132E-1,2.507472513E0
9.726176730E-1,3.705582023E-1,-9.679877758E-1,3.655184746E0,3.799301152E0
9.925866250E-1,-2.207016945E-2,1.302952766E0,-1.278591156E-1,1.309397173E0
1.012536778E0,-8.468103409E-2,3.182513237E0,-2.208432198E0,3.874626969E0
1.032486768E0,9.976470470E-1,2.444678307E0,-2.424364090E-1,2.651514108E0
1.052433300E0,9.070605636E-1,1.058609486E0,1.792075157E0,2.270450677E0
1.072387481E0,8.651028275E-1,-1.857948303E-1,2.384977341E0,2.543823802E0
1.092334796E0,1.267746687E-1,-6.632659435E-1,1.451513290E0,1.600901109E0
1.112287503E0,-7.727825642E-2,-7.564787865E-1,2.380371094E-2,7.607882097E-1
1.132228704E0,2.901130915E-1,-2.674725056E-1,-7.183589935E-1,8.196016048E-1
1.152169335E0,5.364844799E-1,-2.766609192E-1,-3.577842712E-1,7.016882827E-1
1.172128827E0,-1.702544689E-1,-4.900274277E-1,5.239133835E-1,7.372914603E-1
1.192088033E0,4.534043670E-1,-2.047018290E0,1.783569336E0,2.752631282E0
1.212047118E0,1.395828724E-1,-2.178917885E0,9.171028137E-1,2.368173156E0
1.231972287E0,3.288949728E-1,-1.652607918E0,-6.886291504E-2,1.686424304E0
1.251929114E0,1.159520507E0,-1.154091835E0,-4.426212311E-1,1.694794773E0
1.271888707E0,1.875249624E0,-8.726119995E-1,-3.176860809E-1,2.092591050E0
1.291839023E0,1.587797046E0,-8.077435493E-1,-3.599519730E-1,1.817447254E0
1.311789034E0,9.253824949E-1,-6.091856956E-1,-4.857625961E-1,1.209712889E0
1.331731903E0,1.203126073E0,-1.259518385E0,-1.141901970E0,2.082747949E0
1.351670765E0,1.675458431E0,-1.658332586E0,-2.131185532E0,3.177920655E0
1.371640795E0,1.023926973E0,-1.484110355E0,-3.018619061E0,3.516115901E0
1.391589891E0,2.620931268E-1,-8.303525448E-1,-3.689678192E0,3.791029322E0
1.411537948E0,3.208953440E-1,-4.851138592E-1,-3.536225796E0,3.583741363E0
1.431480614E0,5.733609796E-1,-6.462874413E-1,-2.860239506E0,2.987875550E0
1.451440350E0,4.592689574E-1,-5.577857494E-1,-1.915910721E0,2.047624675E0
1.471388387E0,-9.787560701E-1,-5.206768513E-1,9.529399872E-2,1.112721337E0
1.491321878E0,-1.339148521E0,-6.095249653E-1,2.203468323E0,2.649549414E0
1.511290830E0,5.698379278E-1,-9.738101959E-1,2.494144440E0,2.737476584E0
1.531240739E0,1.769142866E0,-5.652737617E-1,1.605303764E0,2.454872926E0
1.551190871E0,2.589782953E0,-2.494378090E-1,2.137714386E0,3.367345804E0
1.571141126E0,1.888220310E0,8.955693245E-2,3.117795944E0,3.646100374E0
1.591084911E0,1.778962851E0,-1.893074512E-1,3.879083633E0,4.271748585E0
1.611031646E0,1.979125857E0,-9.314589500E-1,3.511744499E0,4.137258073E0
1.630991240E0,1.740986824E0,-1.193734646E0,2.269438744E0,3.099417645E0
1.650941332E0,1.802078009E0,-6.354393959E-1,8.636941910E-1,2.096958758E0
1.670891770E0,2.050735950E0,9.914493561E-2,1.909446716E-1,2.061991155E0
1.690835900E0,1.747595668E0,2.443311214E-1,3.872385025E-1,1.806582955E0
1.710791872E0,1.009911656E0,-5.022287369E-2,7.485675812E-1,1.258092729E0
1.730723552E0,6.364635229E-1,-3.518402576E-1,4.068546295E-1,8.333115099E-1
1.750673441E0,1.683444023E0,-6.355998516E-1,6.205186844E-1,1.903421758E0
1.770624245E0,2.428854942E0,-4.100763798E-1,1.145896912E0,2.716722051E0
1.790574113E0,2.372374773E0,-1.057832241E-1,8.039417267E-1,2.507124738E0
1.810524470E0,1.713633418E0,-1.301841736E-1,-3.114652634E-1,1.746567497E0
1.830479180E0,9.363245964E-1,-1.842999458E-1,-2.074457169E0,2.283427854E0
1.850442781E0,1.228248239E0,-1.337742805E-1,-3.096427917E0,3.333819902E0
1.870393056E0,1.902777076E0,1.600658894E-1,-2.942618370E0,3.507874650E0
1.890343657E0,2.129913568E0,1.581091881E-1,-2.284196854E0,3.127152953E0
1.910283617E0,2.350422144E0,-2.685151100E-1,-2.398799896E0,3.369098627E0
1.930243292E0,1.548956513E0,-4.969377518E-1,-3.183962822E0,3.575448596E0
1.950193445E0,7.024133205E-1,-3.114001751E-1,-3.246130466E0,3.335823369E0
1.970143639E0,4.119361639E-1,1.986718178E-2,-2.553819180E0,2.586905199E0
1.990084495E0,5.840244293E-1,-1.970410347E-2,-2.181216240E0,2.258135751E0
2.010034831E0,3.583073020E-1,2.378389835E-1,-2.529550076E0,2.565847831E0
2.029990945E0,-8.491873145E-1,1.416289091E0,-1.795177460E0,2.439191669E0
2.049942441E0,-4.915555716E-1,2.477140188E0,8.136320114E-1,2.653271083E0
2.069894506E0,5.542083383E-1,1.848562717E0,1.532425880E0,2.464276787E0
2.089835118E0,1.011511683E0,7.956430912E-1,1.438507080E0,1.930157101E0
2.109796969E0,1.374649763E0,4.400587082E-2,2.193649292E0,2.589149610E0
2.129738170E0,1.416948557E0,-1.241505146E-1,3.357934952E0,3.646763456E0
2.149692332E0,9.066040516E-1,-2.641892433E-2,4.065266609E0,4.165215657E0
2.169645069E0,4.834777117E-1,-4.733290672E-1,3.683023453E0,3.744656574E0
2.189594265E0,2.473503351E-1,-2.756276131E-1,2.978365898E0,3.001302416E0
2.209545293E0,7.052127123E-1,4.052331448E-1,2.919122696E0,3.030316186E0
2.229486230E0,8.712888956E-1,2.454247475E-1,2.693970680E0,2.841980942E0
2.249446108E0,5.924729109E-1,-3.618905544E-1,2.428149223E0,2.525449975E0
2.269386109E0,4.637974501E-1,-1.001423836E0,2.358304024E0,2.603757985E0
2.289336364E0,7.282366753E-1,-1.393263817E0,2.363654137E0,2.838727461E0
2.309286639E0,8.306567669E-1,-1.331778407E0,1.446470261E0,2.134455576E0
2.329235755E0,9.698839188E-1,-1.154256821E0,3.173398972E-1,1.540677849E0
2.349195531E0,6.661705971E-1,-1.099766254E0,-4.809989929E-1,1.372817945E0
2.369135939E0,-5.940592289E-2,-1.089462280E0,-2.745761871E-1,1.125099643E0
2.389087089E0,-1.009542942E-1,-1.482330561E0,1.495599747E-1,1.493272864E0
2.409046845E0,9.452557564E-2,-2.600839853E0,-4.621934891E-1,2.643279374E0
2.428987069E0,-6.770154238E-1,-2.628542423E0,-1.797199249E0,3.255381744E0
2.448946947E0,-4.924477339E-1,-2.582074165E0,-2.709503174E0,3.775052214E0
2.468897141E0,2.941862345E-1,-2.435991526E0,-2.586129665E0,3.564921724E0
2.488837468E0,7.382267714E-1,-2.290750504E0,-1.706992626E0,2.950650854E0
2.508803857E0,6.185824871E-1,-2.577673197E0,-1.317383766E0,2.960159352E0
2.528737957E0,2.447719574E-1,-3.093636036E0,-1.109891891E0,3.295809043E0
2.548697572E0,-1.361314505E-1,-2.776075602E0,-1.170381546E0,3.015778586E0
2.568646789E0,-1.022815704E-3,-2.025199890E0,-1.173644066E0,2.340699903E0
2.588597817E0,-5.148871541E-1,-1.713104486E0,-1.682539940E0,2.455763916E0
2.608547930E0,-6.122210026E-1,-2.170973539E0,-2.151334763E0,3.117079069E0
2.628479548E0,2.561756372E-1,-2.991095304E0,-2.388717651E0,3.836437031E0
2.648439487E0,1.384298205E0,-2.491918564E0,-1.657591343E0,3.297506438E0
2.668372185E0,2.740643978E0,-1.009473085E0,6.340694427E-2,2.921332875E0
2.688349010E0,3.239689827E0,-3.648643494E-1,8.356018066E-1,3.365552933E0
2.708298573E0,3.480035305E0,-2.783339024E-1,9.281034470E-1,3.612407991E0
2.728235380E0,3.611507893E0,-2.077677250E-1,2.484146118E0,4.388295640E0
2.748198065E0,2.775244474E0,-3.988702297E-1,5.019825935E0,5.749759280E0
2.768146225E0,1.812412739E0,-4.966127872E-1,5.811221123E0,6.107516282E0
2.788099002E0,1.564545870E0,-2.147321701E-1,4.335534096E0,4.614192191E0
2.808049278E0,1.564464092E0,2.443133593E-1,2.419402122E0,2.891495036E0
2.827990113E0,1.656665683E0,4.104154110E-1,1.105365753E0,2.033424560E0
2.847930683E0,1.358981729E0,4.868243933E-1,1.620121002E-1,1.452610495E0
2.867889910E0,1.032845140E0,7.609465122E-1,-4.670066833E-1,1.365248666E0
2.887854366E0,5.948600173E-1,1.166220784E0,-9.925680161E-1,1.642900065E0
2.907799534E0,-3.867374957E-1,1.393859029E0,-1.143065453E0,1.843639746E0
2.927744825E0,-9.933611155E-1,1.048661113E0,-1.040938377E0,1.780451948E0
2.947689607E0,-8.950018287E-1,3.924974203E-1,-3.193759918E-1,1.028145672E0
2.967648081E0,-7.237973809E-1,-2.932333946E-2,-5.318803787E-1,8.986875120E-1
2.987600167E0,-7.709635496E-1,4.791371822E-1,-9.326381683E-1,1.301449648E0
3.007549344E0,-1.241850376E0,1.712896824E-1,-1.056688309E0,1.639549540E0
3.027500474E0,-1.306560040E0,-2.689380646E-1,-8.856897354E-1,1.601209895E0
3.047450566E0,-3.885728121E-1,1.801896095E-2,-7.087182999E-1,8.084523126E-1
3.067399579E0,-3.040875196E-1,2.566909790E-2,5.894756317E-2,3.108101308E-1
3.087351055E0,-9.488864541E-1,-1.617496014E-1,2.237639427E0,2.435893808E0
3.107300964E0,-2.528110743E-1,-6.410132647E-1,1.671280861E0,1.807758601E0
3.127251076E0,1.238950491E-1,-1.119370103E0,-2.416477203E-1,1.151838978E0
3.147200233E0,-8.946038485E-1,-1.218383431E0,-1.660902023E0,2.245744812E0
3.167150976E0,-1.121707439E0,-8.901634216E-1,-1.089063644E0,1.799077018E0
3.187101230E0,-3.013045788E-1,-1.613621712E-1,-2.589797974E-2,3.427723805E-1
3.207051037E0,-1.338438988E-1,-1.116528511E-1,-1.894378662E-2,1.753265965E-1
3.226994680E0,-2.094081640E-1,2.694334984E-1,8.259515762E-1,8.936678329E-1
3.246932179E0,-4.141938686E-1,2.103734016E-1,1.806634903E0,1.865406980E0
3.266891711E0,1.042163491E0,-4.932777882E-1,4.469866753E0,4.616182027E0
3.286852281E0,1.772620797E0,-7.959151268E-1,4.837903976E0,5.213538171E0
3.306802088E0,1.310973525E0,-1.272659659E0,4.036516190E0,4.430776133E0
3.326742333E0,9.143096805E-1,-1.811262608E0,1.740105629E0,2.672938837E0
3.346692873E0,1.040394783E0,-1.814853191E0,-1.102266312E-1,2.094818207E0
3.366642883E0,1.303696871E0,-1.415489674E0,2.396373749E-1,1.939242795E0
3.386601439E0,9.041239619E-1,-8.770756721E-1,1.404187202E0,1.886383729E0
3.406552670E0,8.833224773E-1,-1.266808152E0,8.661975861E-1,1.770694709E0
3.426476721E0,6.936718822E-1,-1.782440424E0,-8.282537460E-1,2.084293361E0
3.446456374E0,7.856712341E-1,-2.249063015E0,-2.381659508E0,3.368659339E0
3.466393547E0,6.841652393E-1,-2.129554033E0,-3.268801212E0,3.960826154E0
3.486336010E0,6.469019055E-1,-1.492117167E0,-3.037827492E0,3.445764296E0
3.506292389E0,7.621808648E-1,-1.256303668E0,-2.632838726E0,3.015138195E0
3.526252796E0,-5.760484934E-2,-1.614571571E0,-2.821068764E0,3.250936580E0
3.546200833E0,-7.785176039E-1,-2.549991608E0,-2.795373917E0,3.862986176E0
3.566153509E0,-6.826189756E-1,-3.133225918E0,-2.824338913E0,4.273167866E0
3.586102706E0,1.239986718E-1,-2.652052402E0,-2.590786934E0,3.709573365E0
3.606053815E0,9.097044468E-1,-1.507168531E0,-1.354729652E0,2.221353550E0
3.626004111E0,7.093516588E-1,-1.246590614E0,-1.340465546E0,1.963164745E0
3.645953267E0,5.664862394E-1,-1.904882193E0,-1.612661839E0,2.559328239E0
3.665904275E0,1.032312274E0,-2.538006067E0,-1.425035954E0,3.088344362E0
3.685859860E0,1.245906472E0,-2.425988913E0,-5.774784088E-1,2.787684784E0
3.705797725E0,1.649572134E0,-1.853892088E0,8.886823654E-1,2.635860475E0
3.725744866E0,2.194280624E0,-1.559054852E0,2.461107254E0,3.647268622E0
3.745686251E0,2.500256777E0,-1.593247414E0,3.171853065E0,4.341701641E0
3.765654491E0,2.684234381E0,-1.418390036E0,3.146666527E0,4.372465521E0
3.785603810E0,2.984078884E0,-3.458253145E-1,3.114190102E0,4.326950650E0
3.805554797E0,2.697650194E0,9.097771645E-1,3.598653793E0,4.588607652E0
3.825504747E0,2.007767677E0,1.290659547E0,4.780904770E0,5.343592755E0
3.845454493E0,1.382462621E0,6.318181753E-1,5.235651970E0,5.451829845E0
3.865388350E0,7.385336757E-1,3.592669964E-2,3.791407585E0,3.862834994E0
3.885345623E0,6.211669445E-1,2.874679565E-1,1.931389809E0,2.049085843E0
3.905308614E0,6.050643921E-1,9.763737917E-1,5.769233704E-1,1.285398489E0
3.925255350E0,2.882167399E-1,1.410747409E0,-2.226238251E-1,1.456996400E0
3.945205828E0,4.626066387E-1,1.297593236E0,-1.145467758E-1,1.382343688E0
3.965154781E0,8.219192624E-1,1.182411194E0,-1.795654297E-1,1.451168925E0
3.985105850E0,9.517861605E-1,1.044705510E0,-1.026803970E0,1.746892353E0
4.005055860E0,7.930899858E-1,7.059011459E-1,-2.079386711E0,2.334767065E0
4.024987805E0,6.258772612E-1,3.310979605E-1,-2.962201595E0,3.045650423E0
4.044955963E0,1.006895304E0,3.516252041E-1,-2.737296104E0,2.937731846E0
4.064906014E0,1.909368515E0,6.722120047E-1,-2.149584770E0,2.952671975E0
4.084856473E0,2.274827719E0,6.606175900E-1,-2.426656723E0,3.391153137E0
4.104804693E0,2.160171032E0,-7.860541344E-2,-3.112107754E0,3.789159850E0
4.124756494E0,1.051940441E0,-8.131524324E-1,-3.928748131E0,4.147632752E0
4.144697126E0,-9.311497211E-2,-8.160623312E-1,-3.546671867E0,3.640536974E0
4.164655966E0,-5.046210289E-1,-4.299316406E-1,-1.920670509E0,2.031860921E0
4.184597330E0,-6.834034920E-1,-4.110145569E-1,-4.666147232E-1,9.239602798E-1
4.204556659E0,-4.090729952E-1,-8.769607544E-1,4.824352264E-1,1.081269914E0
4.224506161E0,-6.164675355E-1,-9.003144503E-1,1.000267029E0,1.480247432E0
4.244456823E0,-7.778167725E-1,-1.000464082E0,2.098753929E0,2.451671953E0
4.264406813E0,1.187825203E0,-4.311625957E-1,2.594330788E0,2.885720384E0
4.284356031E0,2.063521862E0,6.184576750E-1,2.846030235E0,3.569383766E0
4.304306489E0,2.247712135E0,1.482262135E0,5.152443886E0,5.813517771E0
4.324267343E0,1.956264257E0,6.412712336E-1,7.952283859E0,8.214439556E0
4.344201281E0,1.027302146E0,-6.476241946E-1,7.832898140E0,7.926478415E0
4.364131842E0,3.856731057E-1,-1.559410095E0,5.746528625E0,5.966832898E0
4.384098231E0,2.890675366E-1,-1.796845675E0,3.233256340E0,3.710277750E0
4.404057681E0,8.835346699E-1,-1.417724848E0,1.467509270E0,2.223546877E0
4.424005637E0,1.504432321E0,-9.394114017E-1,6.041822433E-1,1.873725319E0
4.443957866E0,8.319776058E-1,-1.069160581E0,-5.283498764E-1,1.454113020E0
4.463907937E0,2.702013850E-1,-1.401826501E0,-1.315011024E0,1.940974065E0
4.483859901E0,1.251718998E-1,-1.758714437E0,-1.736044407E0,2.474387734E0
4.503807959E0,2.020500302E-1,-2.160764694E0,-2.404883385E0,3.239319739E0
4.523758580E0,3.174537420E-1,-2.109400749E0,-2.912807465E0,3.610373350E0
4.543707534E0,7.731758952E-1,-1.369334459E0,-2.241138458E0,2.737805584E0
4.563666151E0,1.097888947E0,-8.118643761E-1,-2.503718376E0,2.851857221E0
4.583618297E0,1.025597215E0,-9.471178055E-1,-4.073839188E0,4.306396116E0
4.603558848E0,1.119518399E0,-1.679387093E0,-4.167264462E0,4.630308364E0
4.623508919E0,6.308833361E-1,-2.191991329E0,-3.797758102E0,4.430102299E0
4.643458971E0,8.337312341E-1,-2.460901737E0,-3.906490326E0,4.691674733E0
4.663399602E0,9.537773132E-1,-2.127218246E0,-3.952350616E0,4.588662553E0
4.683359073E0,2.663366795E-1,-1.406497955E0,-3.303748131E0,3.600544881E0
4.703299888E0,-1.654118299E-1,-1.114559174E0,-2.108334541E0,2.390539220E0
4.723249696E0,8.800761104E-1,-1.425365925E0,-3.211793900E-1,1.705684080E0
4.743199950E0,1.666009903E0,-1.121814013E0,2.297335625E0,3.051525299E0
4.763155800E0,2.335787773E0,-8.430347443E-1,5.568965912E0,6.097539949E0
4.783109778E0,2.845831394E0,-7.343232632E-1,6.211963654E0,6.872152458E0
4.803057754E0,1.999307394E0,-8.655071259E-3,4.295905113E0,4.738365299E0
4.823008273E0,1.755635262E0,6.377425194E-1,4.132615089E0,4.535138164E0
4.842959688E0,1.105494142E0,4.804773331E-1,5.579074860E0,5.707806238E0
4.862899750E0,7.678258419E-2,-2.602005005E-1,6.377408981E0,6.383176731E0
4.882860035E0,1.027774811E-2,-9.066143036E-1,5.212025642E0,5.290299276E0
4.902809985E0,5.661519766E-1,-9.279940128E-1,2.662006378E0,2.875409346E0
4.922750433E0,1.457539558E0,-6.896986961E-1,1.167783737E-1,1.616707470E0
4.942705387E0,2.049746990E0,-1.843719482E-1,-1.598351479E0,2.605797995E0
4.962650699E0,2.557723045E0,2.318091393E-1,-2.054722786E0,3.289007203E0
4.982610373E0,2.973937273E0,2.682251930E-1,-1.658988953E0,3.415917447E0
5.002560811E0,2.737250805E0,6.139969826E-2,-1.483437538E0,3.113984396E0
5.022501809E0,2.176029682E0,-2.027537823E-1,-1.308090210E0,2.547020666E0
5.042442156E0,1.517172456E0,-5.506017208E-1,-2.035270214E0,2.597556421E0
5.062392105E0,1.114120126E0,-8.366646767E-1,-2.488227844E0,2.851762480E0
5.082342971E0,9.617686868E-1,-7.883630991E-1,-2.893206596E0,3.149152234E0
5.102310621E0,9.249293804E-1,-7.054126263E-1,-3.311860561E0,3.510202517E0
5.122263317E0,6.218229532E-1,-7.135386467E-1,-3.706461906E0,3.825396849E0
5.142211049E0,3.788790703E-1,-7.481501102E-1,-3.856564045E0,3.946690280E0
5.162161365E0,-2.180237770E-1,-6.617498398E-1,-3.821384907E0,3.884382811E0
5.182109300E0,-3.433884382E-1,-9.544417858E-1,-3.189223289E0,3.346643084E0
5.202048732E0,6.174457073E-2,-1.148439407E0,-2.608738422E0,2.851007124E0
5.222006310E0,5.929428339E-1,-7.579436302E-1,-3.199779034E0,3.341353860E0
5.241961265E0,1.155024171E0,-1.558804512E-1,-3.317644119E0,3.516410393E0
5.261911561E0,8.260821104E-1,1.835982800E-1,5.125236511E-1,9.893434563E-1
5.281861592E0,7.076131701E-1,1.743595600E-1,4.996798515E0,5.049664648E0
5.301810524E0,1.292717218E0,4.497213364E-1,6.557934761E0,6.699244392E0
5.321761979E0,6.642293930E-1,1.367959499E0,5.834031105E0,6.028966148E0
5.341711746E0,-6.090420485E-1,1.590927124E0,5.690214157E0,5.939740608E0
5.361652296E0,-1.709722400E0,1.036881685E0,7.282353401E0,7.551883565E0
5.381609733E0,-2.440093994E0,1.062799692E-1,8.516366959E0,8.859676084E0
5.401561859E0,-2.241058826E0,-8.114491701E-1,7.859268188E0,8.212727371E0
5.421512012E0,-1.219623208E0,-1.100946903E0,5.352274895E0,5.598786601E0
5.441450040E0,2.150745392E-1,-6.463577747E-1,2.909713745E0,2.988389116E0
5.461412400E0,1.033159018E0,-1.317529678E-1,1.073063850E0,1.495407111E0
5.481358057E0,1.064529419E0,1.796467304E-1,4.755973816E-2,1.080628410E0
5.501310529E0,6.583791375E-1,1.459805965E-1,5.095205307E-1,8.452127510E-1
5.521262188E0,5.579930544E-1,-4.578533173E-1,8.514995575E-1,1.116260456E0
5.541212707E0,4.211364985E-1,-1.587780714E0,1.625328064E-1,1.650703020E0
5.561162759E0,7.082797289E-1,-1.696966171E0,-1.504738808E0,2.376045715E0
5.581103288E0,2.631245852E-1,-9.907147884E-1,-2.269755363E0,2.490489861E0
5.601062841E0,-3.532488346E-1,-7.957770824E-1,-1.781327248E0,1.982718504E0
5.621012628E0,-2.986826897E-1,-8.230320215E-1,-1.890170097E0,2.083107307E0
5.640953768E0,1.388900280E-1,-7.621951103E-1,-2.756638527E0,2.863439853E0
5.660913362E0,1.627205491E0,-6.112316847E-1,-3.973756790E0,4.337296959E0
5.680853505E0,1.758378625E0,-1.518449068E0,-4.001588345E0,4.627125700E0
5.700811104E0,2.119879723E-1,-2.216814041E0,-3.355455399E0,4.027193107E0
5.720763129E0,2.685475349E-2,-1.930384636E0,-3.972124577E0,4.416432913E0
5.740713262E0,8.970009089E-1,-1.337828159E0,-4.542152405E0,4.819288670E0
5.760661706E0,2.286721945E0,-1.119849443E0,-4.721197128E0,5.364034149E0
5.780605837E0,1.647884011E0,-1.632323265E-1,-3.308065891E0,3.699387307E0
5.800563803E0,1.496567488E0,-1.717201233E0,-3.493617535E0,4.170594418E0
5.820511576E0,1.485798836E0,-3.094356298E0,-1.241379738E0,3.650159275E0
5.840464027E0,1.061610460E0,-1.941462874E0,-5.453815460E-1,2.278976940E0
5.860413713E0,1.837986588E0,-2.502537251E0,2.090390205E0,3.743076088E0
5.880373693E0,1.725670695E0,-3.734601974E0,3.439875603E0,5.362642578E0
5.900314019E0,1.126652956E0,-2.627260447E0,2.343038559E0,3.696170184E0
5.920263847E0,2.383465528E0,-1.239610195E0,2.970998764E0,4.005543037E0
5.940214000E0,3.099841118E0,-1.285921216E0,3.964329720E0,5.194084949E0
5.960164478E0,3.310057402E0,-2.185144901E0,3.477205276E0,5.274684330E0
5.980113899E0,3.238873959E0,-1.219889402E0,1.810420036E0,3.905900073E0
6.000059739E0,3.763411045E0,-2.453351021E-1,-7.775859833E-1,3.850726161E0
6.020012496E0,1.915304661E0,-6.735861301E-1,-9.009447098E-1,2.221218492E0
6.039956627E0,2.842688560E-1,-1.604676962E0,-3.942794800E-1,1.676679231E0
6.059904970E0,-4.765675068E-1,-3.838138580E-1,-2.019690514E0,2.110350548E0
6.079862732E0,-4.690637589E-1,1.343628168E0,-4.271675587E0,4.502507055E0
6.099814472E0,-5.811126232E-1,5.358917713E-1,-3.896704674E0,3.976075853E0
6.119764808E0,-5.015482903E-1,-1.484358072E0,-3.406234741E0,3.749307228E0
6.139704748E0,6.764116287E-1,-9.107823372E-1,-4.576284885E0,4.714810761E0
6.159664748E0,1.674833298E-1,6.237926483E-1,-4.273709297E0,4.322240055E0
6.179614840E0,-4.854183197E-1,1.273252010E0,-5.329463005E0,5.500906975E0
6.199571687E0,-1.782491207E0,-8.356486559E-1,-5.653944969E0,5.986875420E0
6.219524810E0,-1.515208721E0,-2.277416468E0,-2.807317734E0,3.919632138E0
6.239465096E0,-7.525134087E-1,-2.224280357E0,-1.572491646E0,2.826027161E0
6.259422472E0,-2.194119453E0,-3.483057022E-1,-4.044384956E-1,2.258107069E0
6.279369370E0,-2.737673759E0,1.546753645E-1,-4.159827232E-1,2.773413728E0
6.299305098E0,-2.938882351E0,-6.706439257E-1,4.097990990E-1,3.042158452E0
6.319255597E0,-3.504071236E-1,-4.921261072E-1,1.946456909E0,2.038054895E0
6.339204672E0,3.163553715E0,6.652092934E-2,2.900631428E0,4.292570305E0
6.359147196E0,4.391667843E0,-2.214329839E-1,4.023890018E0,5.960492420E0
6.379115801E0,6.466312408E-1,1.072838783E0,3.911179066E0,4.106876757E0
6.399064551E0,2.840364456E0,1.602382898E0,4.621915340E0,5.656624666E0
6.419015497E0,5.583293438E0,1.935627580E0,7.072108746E0,9.215993807E0
6.438956882E0,4.603740692E0,1.654065371E0,8.789836884E0,1.005940322E1
6.458904492E0,3.885581017E0,1.208488703E0,9.227878571E0,1.008523315E1
6.478863434E0,4.153481960E0,8.932625055E-1,8.803289413E0,9.774826586E0
6.498815500E0,3.624958992E0,2.810215354E-1,6.973885536E0,7.864755576E0
6.518765836E0,2.529253006E0,-7.026130557E-1,5.326105118E0,5.937860019E0
6.538714790E0,2.267402649E0,-1.060692668E0,3.876235485E0,4.614258905E0
6.558656561E0,2.794211388E0,-1.137298822E0,2.541868687E0,3.944890659E0
6.578616113E0,2.893260479E0,-1.078982115E0,1.221244812E0,3.320632093E0
6.598565066E0,2.025151253E0,-1.237299562E0,-3.403835297E-1,2.397500521E0
6.618515829E0,9.104790688E-1,-1.545687199E0,-1.874497890E0,2.594583472E0
6.638456746E0,-1.527800560E-1,-1.955442786E0,-3.078101158E0,3.649904790E0
6.658415322E0,-5.015683174E-1,-2.210538864E0,-3.433404684E0,4.114160980E0
6.678355709E0,-6.655893326E-1,-2.224861383E0,-3.427682400E0,4.140292739E0
6.698306818E0,-1.199699879E0,-2.681882620E0,-3.971780777E0,4.940325569E0
6.718265476E0,-1.908261776E0,-3.009878635E0,-4.577974796E0,5.801610607E0
6.738216280E0,-2.332938194E0,-3.249479294E0,-4.845166206E0,6.283100498E0
6.758166922E0,-2.041994572E0,-3.195999146E0,-4.294636726E0,5.729577382E0
6.778114511E0,-1.253114700E0,-2.773634911E0,-3.166285515E0,4.391891509E0
6.798066455E0,-9.606299400E-1,-2.470389605E0,-2.824506283E0,3.873431350E0
6.818016282E0,-1.072246075E0,-2.478224516E0,-3.044586658E0,4.069498288E0
6.837966802E0,-3.555488586E-1,-2.698535919E0,-2.350282669E0,3.596156243E0
6.857916792E0,1.186854362E0,-2.654249430E0,-5.901527405E-1,2.966806965E0
6.877866416E0,2.051780701E0,-2.236541986E0,4.548325539E-1,3.069005825E0
6.897816773E0,2.446273327E0,-2.532927036E0,1.536194801E0,3.841857237E0
6.917767089E0,2.489171028E0,-2.808736086E0,1.868828773E0,4.192551943E0
6.937716631E0,2.636266232E0,-1.965716481E0,1.313558102E0,3.541098109E0
6.957666866E0,2.650946617E0,-9.960649014E-1,1.658334732E-1,2.836752368E0
6.977615269E0,3.182187557E0,1.254560947E-1,-1.236658096E-1,3.187059791E0
6.997573520E0,3.408060551E0,8.120183945E-1,1.309382439E0,3.740151462E0
7.017498730E0,2.983869076E0,4.954862595E-1,2.954751968E0,4.228420567E0
7.037465729E0,2.121181488E0,4.811710119E-1,2.977755547E0,3.687541802E0
7.057417469E0,1.518540859E0,5.463639498E-1,1.525651932E0,2.220831764E0
7.077367541E0,1.018972635E0,4.838638306E-1,9.183883667E-3,1.128057526E0
7.097315618E0,8.790545464E-1,4.408426285E-1,-1.419957161E0,1.727239838E0
7.117267521E0,9.518935680E-1,6.571204662E-1,-1.403798103E0,1.818944141E0
7.137190615E0,9.760112762E-1,4.513952732E-1,-1.551357269E0,1.887608296E0
7.157138938E0,1.310081005E0,4.004629850E-1,-1.396404743E0,1.956177152E0
7.177118428E0,1.779388189E0,5.608364344E-1,-6.441802979E-1,1.973759887E0
7.197067930E0,1.312802553E0,3.644074202E-1,-1.057758331E0,1.724846660E0
7.217017961E0,5.137844086E-1,1.003085375E-1,-1.418709278E0,1.512207736E0
7.236968114E0,3.780460358E-2,1.871037483E-2,-1.914404869E0,1.914869517E0
7.256918023E0,-3.790354729E-2,-8.851051331E-2,-2.051598549E0,2.053856713E0
7.276867525E0,-1.456856728E-1,1.470839977E-1,-2.400817871E0,2.409727053E0
7.296816336E0,-1.661765575E-1,1.336424351E-1,-2.414661407E0,2.424059542E0
7.316765553E0,-7.683253288E-2,1.792833805E-1,-2.037818432E0,2.047132074E0
7.336714933E0,-5.475397110E-1,1.674299240E-1,-1.987092018E0,2.067937911E0
7.356666103E0,-9.050192833E-1,1.494448185E-1,-1.929687500E0,2.136606539E0
7.376619064E0,-1.058471084E0,8.963108063E-2,-2.122320175E0,2.373317866E0
7.396568607E0,-1.465124965E0,-2.812242508E-1,-1.652315140E0,2.226167910E0
7.416515546E0,-1.237978935E0,-4.127545357E-1,-1.326889992E0,1.861073669E0
7.436449830E0,1.929409504E-1,-1.088621616E-1,-5.435905457E-1,5.869990306E-1
7.456418497E0,1.064629555E0,-5.815386772E-2,1.360366821E0,1.728414259E0
7.476368365E0,7.361066341E-1,-2.329267263E-1,3.499118805E0,3.583286236E0
7.496318762E0,8.230295181E-1,4.218721390E-2,4.053304672E0,4.136234533E0
7.516277948E0,1.740151405E0,3.039500713E-1,5.042570114E0,5.343035272E0
7.536199374E0,2.453745127E0,6.154463291E-1,5.821273804E0,6.347193713E0
7.556166902E0,1.364762545E0,9.663128853E-2,5.055740356E0,5.237597251E0
7.576118317E0,1.010055542E-1,-5.844544172E-1,3.134821892E0,3.190438431E0
7.596068673E0,4.687829018E-1,-5.076462030E-1,1.256415367E0,1.433890390E0
7.616018135E0,9.029328823E-1,-3.237961531E-1,5.427675247E-1,1.102147143E0
7.635950059E0,5.265433788E-1,-7.381778955E-1,8.479213715E-2,9.106833927E-1
7.655918929E0,5.979492664E-1,-1.287863255E0,1.554956436E-1,1.428395597E0
7.675869164E0,1.228650093E0,-1.288822412E0,-1.302423477E-1,1.785387166E0
7.695818747E0,1.655718565E0,-1.344138384E0,-3.708505630E-1,2.164634404E0
7.715768575E0,1.023345828E0,-1.705059648E0,-9.889554977E-1,2.220922795E0
7.735718606E0,3.010326624E-1,-2.075368404E0,-2.123795986E0,2.984674868E0
7.755669166E0,-2.592420578E-2,-2.109063148E0,-3.200840950E0,3.833301738E0
7.775618424E0,-9.590649605E-2,-2.067344189E0,-4.175034523E0,4.659830825E0
7.795569106E0,1.386111975E-1,-2.011645555E0,-4.089047432E0,4.559192890E0
7.815516411E0,8.239471912E-2,-1.867621899E0,-4.207855225E0,4.604437646E0
7.835468720E0,-5.999549627E-1,-1.947467446E0,-4.851373196E0,5.261976558E0
7.855401580E0,-6.313596964E-1,-1.617604017E0,-5.439740658E0,5.710169546E0
7.875367195E0,-2.756320238E-1,-1.173803091E0,-5.013158798E0,5.156117517E0
7.895318732E0,1.688072681E-1,-1.345337391E0,-1.970868111E0,2.392226933E0
7.915269618E0,2.272689342E-1,-1.365469217E0,-5.397291183E-1,1.485753975E0
7.935219608E0,2.662305832E-1,-1.354519367E0,-7.997789383E-1,1.595383274E0
7.955169476E0,1.278472185E0,-1.500246048E0,1.744893074E0,2.632466747E0
7.975118938E0,2.407877684E0,-1.624251127E0,4.006609917E0,4.948635134E0
7.995069009E0,2.764395475E0,-1.342275381E0,4.613987923E0,5.543687409E0
8.015019162E0,2.584397793E0,-7.034871578E-1,4.121804237E0,4.915615557E0
8.034981156E0,2.235295773E0,-3.798007965E-4,4.315476418E0,4.860029223E0
8.054900263E0,1.469864845E0,8.067619801E-1,4.691491127E0,4.982113663E0
8.074860019E0,1.984290123E0,1.751904249E0,5.375633240E0,5.991995370E0
8.094800569E0,4.072179794E0,2.759609222E0,4.922429085E0,6.959051619E0
8.114769765E0,4.767090797E0,3.173666000E0,2.265369415E0,6.158669429E0
8.134717965E0,3.879547119E0,2.522743702E0,-4.563598633E-1,4.650095264E0
8.154669665E0,3.657751322E0,1.595507622E0,-1.629417419E0,4.310428103E0
8.174619248E0,3.129736423E0,1.179309130E0,-2.758236408E0,4.335191828E0
8.194567692E0,2.029381514E0,5.700869560E-1,-4.059286118E0,4.573968982E0
8.214519310E0,1.024372578E0,3.775286674E-2,-3.659239769E0,3.800105281E0
8.234452353E0,3.300280571E-1,-4.936988354E-1,-1.435958862E0,1.553909557E0
8.254418375E0,-5.484495163E-1,-1.084737778E0,-8.299064636E-2,1.218335079E0
8.274370095E0,-1.480976820E0,-1.921758771E0,7.578229904E-1,2.541799520E0
8.294298601E0,-2.045334816E0,-2.411777020E0,1.106616020E0,3.350322659E0
8.314250951E0,-2.067533970E0,-2.542787552E0,1.250719070E0,3.507814625E0
8.334201491E0,-2.119372368E0,-2.502935886E0,5.909433365E-1,3.332512762E0
8.354150790E0,-1.773257613E0,-1.969683647E0,-5.654792786E-1,2.709956281E0
8.374100739E0,-2.399077892E0,-1.539866209E0,-1.815531731E0,3.379780783E0
8.394051319E0,-3.292696953E0,-1.280114412E0,-2.638918400E0,4.409584612E0
8.414019641E0,-3.365906477E0,-9.810175896E-1,-2.578855038E0,4.352265528E0
8.433968411E0,-3.173316479E0,-9.686696529E-1,-2.190549374E0,3.975772243E0
8.453919276E0,-3.638471365E0,-1.034582615E0,-1.937408447E0,4.249986653E0
8.473869693E0,-3.720289946E0,-1.415768623E0,-1.750430584E0,4.348444009E0
8.493820131E0,-3.522396803E0,-1.504104137E0,-1.977088928E0,4.310277152E0
8.513770284E0,-2.766391039E0,-1.566347599E0,-8.030805588E-1,3.278917895E0
8.533719909E0,-2.002585411E0,-1.650586009E0,2.732810974E-1,2.609495173E0
8.553670022E0,-2.086230516E0,-1.880740762E0,2.569389343E-2,2.808950650E0
8.573620236E0,-2.337191820E0,-2.411644936E0,8.512659073E-1,3.464556327E0
8.593570043E0,-2.136041880E0,-3.111695766E0,3.205603600E0,4.951890537E0
8.613520278E0,-1.369996786E0,-3.545060396E0,5.484230042E0,6.672415122E0
8.633470350E0,-4.399316311E-1,-3.738055468E0,6.910365105E0,7.868909988E0
8.653420156E0,-4.452927113E-1,-3.441799164E0,7.272398949E0,8.058042787E0
8.673370228E0,6.669604778E-2,-3.243366241E0,5.673334122E0,6.535334192E0
8.693320483E0,9.784263372E-1,-2.509341240E0,3.628197670E0,4.518620352E0
8.713270148E0,1.969545722E0,-1.921328306E0,1.996737480E0,3.399643125E0
8.733220017E0,2.852240086E0,-1.527085781E0,1.322922707E0,3.495338178E0
8.753170352E0,2.870052338E0,-1.581858158E0,9.731540680E-1,3.418552982E0
8.773118451E0,2.618905544E0,-1.687060118E0,9.351310730E-1,3.252584851E0
8.793070232E0,2.422078133E0,-1.648659468E0,3.883867264E-1,2.955568434E0
8.813010721E0,2.104671478E0,-1.635030031E0,-7.946434021E-1,2.781083129E0
8.832968707E0,1.866480827E0,-1.501710653E0,-1.679306030E0,2.925569057E0
8.852910966E0,1.559002399E0,-1.314192533E0,-2.583690643E0,3.291359573E0
8.872861139E0,8.781169653E-1,-1.341504455E0,-3.447202206E0,3.801832013E0
8.892820183E0,5.785070658E-1,-1.294957280E0,-3.940405846E0,4.187885267E0
8.912771069E0,8.515399694E-1,-1.047559500E0,-4.058465958E0,4.277107335E0
8.932720368E0,1.102563381E0,-6.529181004E-1,-3.861781120E0,4.068820649E0
8.952670439E0,1.267604351E0,-5.550370216E-1,-3.428881168E0,3.697582041E0
8.972620470E0,1.237792253E0,-4.313769341E-1,-2.788416386E0,3.081149406E0
8.992556199E0,1.105608225E0,-3.737273216E-1,-2.344531059E0,2.618943975E0
9.012520675E0,1.353270292E0,-3.365128040E-1,-8.641653061E-1,1.640537420E0
9.032470665E0,1.827199936E0,-6.152493954E-1,1.369803429E0,2.365069313E0
9.052420818E0,1.849777937E0,-8.795434237E-1,2.382879257E0,3.142194871E0
9.072370443E0,1.753492355E0,-9.185624123E-1,2.265891075E0,3.008779605E0
9.092321450E0,2.108464003E0,-9.149746895E-1,1.599276543E0,2.800086533E0
9.112270423E0,1.865775108E0,-8.077592850E-1,9.771671295E-1,2.255758723E0
9.132211624E0,1.678975582E0,-7.576748133E-1,1.082030296E0,2.136309830E0
9.152168918E0,2.317295551E0,-6.522978544E-1,2.552621841E0,3.508736158E0
9.172120659E0,2.222182274E0,-7.308661938E-1,4.305373192E0,4.899846709E0
9.192070690E0,1.021249294E0,-1.010071516E0,4.821523666E0,5.030932821E0
9.212011179E0,-3.406138420E-1,-1.082099080E0,3.791574478E0,3.957649963E0
9.231974109E0,-1.258532286E0,-1.031416178E0,9.752178192E-1,1.897043131E0
9.251921027E0,-1.881676435E0,-1.211515784E0,-1.510518074E0,2.700026214E0
9.271870712E0,-1.887916803E0,-1.200057149E0,-2.688522339E0,3.497501878E0
9.291820906E0,-1.519190311E0,-1.003310442E0,-2.888777256E0,3.414616388E0
9.311770937E0,-1.263836622E0,-6.475125551E-1,-2.871780396E0,3.203697576E0
9.331720907E0,-8.552546501E-1,-3.188478947E-1,-2.455708504E0,2.619852811E0
9.351661559E0,-6.770467758E-2,-1.119432449E-1,-1.468596935E0,1.474412484E0
9.371620644E0,5.261983871E-1,8.290457726E-2,-5.775451660E-3,5.327206279E-1
9.391570797E0,2.787549496E-1,-1.097130775E-1,1.364297867E0,1.396799896E0
9.411518671E0,-5.525493622E-1,-4.345507622E-1,2.150180817E0,2.262172121E0
9.431470899E0,-1.261576414E0,-4.979724884E-1,1.694349289E0,2.170338951E0
9.451403861E0,-1.388579845E0,-3.351525068E-1,1.103177071E0,1.804849257E0
9.471369070E0,-1.121304989E0,-4.607868195E-2,1.953048706E-1,1.139119008E0
9.491320952E0,-8.635017872E-1,1.099748611E-1,-4.961824417E-1,1.001961487E0
9.511271207E0,-8.875474930E-1,1.265815496E-1,-9.308490753E-1,1.292378985E0
9.531221096E0,-9.612674713E-1,7.375371456E-2,-1.109962463E0,1.470201154E0
9.551178207E0,-1.057863712E0,4.330396652E-2,-1.209782124E0,1.607645376E0
9.571120954E0,-1.027587652E0,-1.107286215E-1,-1.452825546E0,1.782946796E0
9.591061728E0,-1.012938976E0,-1.558921337E-1,-1.265782356E0,1.628665927E0
9.611011088E0,-1.250702143E0,-4.693572521E-1,-1.143761635E0,1.758619560E0
9.630959003E0,-1.410136700E0,-8.962993622E-1,-4.479551315E-1,1.729884926E0
9.650921159E0,-9.209520817E-1,-1.218292713E0,1.092385292E0,1.877683546E0
9.670871374E0,-3.290011883E-1,-1.410006046E0,3.291009903E0,3.595428349E0
9.690821059E0,-7.431771755E-1,-1.762898684E0,3.803803444E0,4.257821594E0
9.710771110E0,-1.488468409E0,-2.110977650E0,2.760934830E0,3.780810227E0
9.730719209E0,-1.549898863E0,-2.210117579E0,2.267969131E0,3.525690029E0
9.750666453E0,-1.290397406E0,-2.416392326E0,2.478832245E0,3.694412895E0
9.770614856E0,-6.576416492E-1,-2.463457584E0,2.685560226E0,3.703153999E0
9.790569282E0,-9.676673412E-1,-2.586324692E0,1.996792793E0,3.407731937E0
9.810521042E0,-1.210676432E0,-2.515954494E0,6.531362534E-1,2.867464282E0
9.830471276E0,-1.204251289E0,-2.332149267E0,-6.602811813E-1,2.706494524E0
9.850398745E0,-9.350566864E-1,-1.865801573E0,-1.417102814E0,2.522642840E0
9.870371236E0,-6.394827366E-1,-1.690754056E0,-1.699176788E0,2.480884763E0
9.890321085E0,-2.894089222E-1,-1.570854306E0,-1.376554489E0,2.108611637E0
9.910271156E0,6.184792519E-2,-1.404658437E0,-7.894191742E-1,1.612474224E0
9.930221330E0,1.480906010E-1,-1.386665702E0,-3.124780655E-1,1.429130902E0
9.950172053E0,2.264022827E-3,-1.414165735E0,3.800315857E-1,1.464340759E0
9.970121487E0,-3.893532753E-1,-1.376464367E0,1.054269791E0,1.777001665E0
9.990070935E0,-8.764531612E-1,-1.284073710E0,1.281739235E0,2.014912133E0
1.001002516E1,-1.539099455E0,-1.095152736E0,4.588537216E-1,1.943896444E0
1.002995431E1,-1.875746012E0,-9.210199118E-1,1.152992249E-3,2.089665549E0
1.004993165E1,-1.799506783E0,-4.596877098E-1,-3.941154480E-1,1.898648056E0
1.006987094E1,-1.596970081E0,-1.242406964E-1,-8.057956696E-1,1.793057682E0
1.008982117E1,-1.719680190E0,6.188690662E-2,-1.445737362E0,2.247506722E0
1.010976941E1,-1.795658827E0,1.085725427E-1,-1.622739315E0,2.422697155E0
1.012972168E1,-1.448760629E0,1.483702064E-1,-9.383983612E-1,1.732487392E0
1.014967151E1,-7.874307632E-1,3.711191416E-1,-3.303442001E-1,9.310767502E-1
1.016962113E1,-3.575072289E-1,6.154348254E-1,-4.583997726E-1,8.465824204E-1
1.018957100E1,-1.301996708E-1,5.888379812E-1,-6.287183762E-1,8.711882224E-1
1.020952095E1,1.440801620E-1,4.733244181E-1,4.613256454E-1,6.764735390E-1
1.022947098E1,7.399985790E-1,7.727491856E-2,2.213056564E0,2.334778077E0
1.024942109E1,1.410548925E0,-1.894934177E-1,4.274938583E0,4.505624920E0
1.026937109E1,1.842402220E0,-4.385148883E-1,4.882019043E0,5.236492259E0
1.028932108E1,1.568086624E0,-5.388942361E-1,4.115749359E0,4.437194547E0
1.030924946E1,1.048169136E0,-8.635345697E-1,3.771849632E0,4.008890138E0
1.032922106E1,1.150476456E0,-1.163615942E0,4.416305542E0,4.709708354E0
1.034917125E1,1.216940403E0,-1.397529364E0,4.508544922E0,4.874526601E0
1.036911912E1,9.223561287E-1,-1.497789264E0,3.299894333E0,3.739440615E0
1.038903457E1,7.833762169E-1,-1.437700748E0,1.390831947E0,2.148272619E0
1.040902122E1,1.004198313E0,-1.187085152E0,-5.576639175E-1,1.651839718E0
1.042895253E1,1.229148626E0,-1.010353327E0,-1.573806763E0,2.237965129E0
1.044894228E1,1.434746265E0,-9.228711128E-1,-1.642685890E0,2.368249326E0
1.046885276E1,1.488662004E0,-7.891041636E-1,-1.813687325E0,2.475532600E0
1.048882167E1,1.221561909E0,-6.517602801E-1,-2.277653694E0,2.665466434E0
1.050877203E1,8.116118908E-1,-5.593516231E-1,-2.503707409E0,2.690750618E0
1.052872137E1,5.535569191E-1,-3.880528808E-1,-2.176289558E0,2.278869576E0
1.054867164E1,5.403528214E-1,-2.077080607E-1,-1.671324730E0,1.768742537E0
1.056862147E1,1.932039261E-1,-1.477226615E-1,-1.830962181E0,1.847044193E0
1.058857130E1,-2.998251915E-1,-1.611550450E-1,-2.309048176E0,2.334002907E0
1.060852113E1,-4.937709570E-1,-1.567769051E-1,-2.446464539E0,2.500715397E0
1.062845732E1,-5.053474903E-1,-1.794352531E-1,-2.268071175E0,2.330605061E0
1.064842115E1,-3.052875996E-1,1.217094064E-1,-2.146888733E0,2.171898922E0
1.066835291E1,-3.359079361E-3,6.680786610E-2,-1.998639584E0,1.999758675E0
1.068831958E1,-1.019592285E-1,-1.108007431E-1,-1.810408592E0,1.816659506E0
1.070827116E1,-3.455400467E-2,-2.141377926E-1,-1.662698269E0,1.676786959E0
1.072822184E1,1.132080555E-1,1.441836357E-3,-1.474588871E0,1.478928829E0
1.074816923E1,3.214647770E-1,1.949177980E-1,-1.349719048E0,1.401097448E0
1.076812162E1,7.040181160E-1,6.022639275E-1,-7.481079102E-1,1.190810141E0
1.078805212E1,1.111400843E0,7.112638950E-1,2.570924759E-1,1.344323139E0
1.080800247E1,1.267554045E0,6.621305943E-1,1.076802254E0,1.790143367E0
1.082797196E1,1.147444725E0,6.813135147E-1,1.629915237E0,2.106523483E0
1.084792158E1,7.471702099E-1,7.739319801E-1,1.350975990E0,1.726954012E0
1.086787599E1,4.073951244E-1,1.280831814E0,7.835264206E-1,1.555768162E0
1.088782028E1,3.199968338E-1,1.847160578E0,9.992561340E-1,2.124361785E0
1.090777131E1,1.087927818E0,1.507388115E0,2.642074585E0,3.230536175E0
1.092771178E1,2.282682896E0,5.997635126E-1,5.847347260E0,6.305698014E0
1.094766899E1,2.956150055E0,-4.207963943E-1,8.475234985E0,8.985850033E0
1.096761251E1,1.567884445E0,-1.107836246E0,6.259769440E0,6.547539707E0
1.098757104E1,1.282290459E0,-1.336321831E0,3.137034416E0,3.642939717E0
1.100752046E1,2.126780748E0,-9.481077194E-1,1.578102112E0,2.812918569E0
1.102747103E1,2.557283163E0,-9.539201260E-1,9.686222076E-1,2.896185381E0
1.104742174E1,2.025223732E0,-1.382466316E0,-1.144313812E-1,2.454758404E0
1.106735300E1,1.443511009E0,-1.936729074E0,-1.117991447E0,2.661681501E0
1.108730690E1,1.185113907E0,-2.162349224E0,-1.709672451E0,3.000538123E0
1.110725957E1,9.131451845E-1,-2.356780052E0,-2.044407368E0,3.250822639E0
1.112720478E1,3.723183870E-1,-2.618322849E0,-2.502673149E0,3.641099891E0
1.114716065E1,-6.028298140E-1,-2.899791241E0,-3.444055080E0,4.542434196E0
1.116712130E1,-1.181183815E0,-3.054005623E0,-4.039574623E0,5.200029681E0
1.118707103E1,-2.584347725E-1,-2.876571178E0,-3.222997665E0,4.327720442E0
1.120702027E1,9.043931961E-2,-2.566720247E0,-2.268692970E0,3.426835259E0
1.122697119E1,-6.139750481E-1,-2.925335884E0,-2.520374298E0,3.909839127E0
1.124691225E1,-1.769294977E0,-3.293472767E0,-3.382754326E0,5.041864180E0
1.126687915E1,-1.863688350E0,-3.175059319E0,-3.903557301E0,5.365826641E0
1.128681148E1,-5.553176403E-1,-2.467441797E0,-2.987974644E0,3.914669740E0
1.130677085E1,-2.907178402E-1,-1.880305767E0,-2.864791870E0,3.439054972E0
1.132670894E1,-1.015484333E-1,-1.785956383E0,-2.572362423E0,3.133209332E0
1.134667093E1,-2.761540413E-1,-1.778516531E0,-1.834965706E0,2.570307617E0
1.136661453E1,1.952252388E-1,-1.674765110E0,-6.873750687E-1,1.820833752E0
1.138656157E1,1.525337934E0,-1.276203394E0,1.907022476E0,2.755373957E0
1.140652623E1,2.861525059E0,-6.391580105E-1,4.865839005E0,5.680953955E0
1.142646363E1,2.707949877E0,-2.845547199E-1,5.777901649E0,6.387339931E0
1.144640265E1,1.294266224E0,-2.609586716E-1,4.239135742E0,4.439988325E0
1.146636172E1,1.179378033E0,1.840121746E-1,3.647433281E0,3.837780943E0
1.148630210E1,1.654562235E0,5.072021484E-1,3.494372368E0,3.899418989E0
1.150626068E1,2.260735035E0,5.719802380E-1,3.584995270E0,4.276713151E0
1.152619655E1,2.652008772E0,3.816041946E-1,4.135926247E0,4.927946652E0
1.154616162E1,1.727648258E0,-3.464707136E-1,3.670904160E0,4.071897323E0
1.156611269E1,6.919686794E-1,-1.095848441E0,1.957094193E0,2.347322334E0
1.158606612E1,9.884674549E-1,-1.113527775E0,5.502653122E-1,1.587389029E0
1.160600243E1,1.144666433E0,-9.757151604E-1,-1.091232777E0,1.858243873E0
1.162595204E1,1.019720078E0,-9.859519005E-1,-2.400278091E0,2.788057586E0
1.164590252E1,6.566128731E-1,-8.175861835E-1,-3.448819160E0,3.604710978E0
1.166585234E1,5.748631954E-1,-5.340118408E-1,-3.743870735E0,3.825206455E0
1.168580244E1,4.037938118E-1,-1.766376495E-1,-3.729586124E0,3.755537639E0
1.170575279E1,5.851092339E-1,-2.492928505E-2,-2.851834297E0,2.911345590E0
1.172570586E1,1.592297554E-1,-1.501965523E-2,-2.134552479E0,2.140535912E0
1.174564824E1,-6.859629154E-1,-1.429860592E-1,-1.818841934E0,1.949147536E0
1.176560217E1,-1.228591919E0,-1.018803120E-1,-1.731467247E0,2.125510887E0
1.178556191E1,-1.095773220E0,2.366440296E-1,-1.384815216E0,1.781693725E0
1.180552093E1,-1.086712599E0,4.493498802E-1,-1.519566059E0,1.921442322E0
1.182547080E1,-1.698916674E0,5.114831924E-1,-2.419650555E0,3.000440256E0
1.184541115E1,-1.644588232E0,7.172920704E-1,-3.135406017E0,3.612471351E0
1.186536535E1,-9.666604996E-1,1.165474415E0,-2.806429386E0,3.188857010E0
1.188530236E1,2.127552032E-1,1.407042742E0,-1.473008156E0,2.048117936E0
1.190525200E1,1.150261164E0,1.584690571E0,1.036067963E0,2.215351388E0
1.192520242E1,1.328587770E0,1.484792829E0,2.714439392E0,3.367185237E0
1.194515227E1,1.207565069E0,1.297471762E0,3.673573494E0,4.078821960E0
1.196510259E1,1.261255980E0,1.422420859E0,4.124643326E0,4.541666028E0
1.198505286E1,1.768060207E0,1.497336268E0,3.043812752E0,3.825290690E0
1.200500277E1,2.381795406E0,1.637591600E0,1.766381264E0,3.387441273E0
1.202495237E1,3.035395384E0,1.653530717E0,2.167733192E0,4.080055902E0
1.204490204E1,3.904323816E0,9.300433397E-1,3.873551369E0,5.577914062E0
1.206485229E1,3.629185200E0,3.523895741E-1,5.641592026E0,6.717345027E0
1.208480206E1,1.966192007E0,-5.835275054E-1,5.530080795E0,5.898153013E0
1.210475199E1,1.421582222E0,-1.618751287E0,4.061651230E0,4.597636617E0
1.212470273E1,2.460939169E0,-1.936749816E0,1.791070938E0,3.607652498E0
1.214465219E1,3.335622311E0,-2.045751333E0,-1.798944473E-1,3.917120974E0
1.216460239E1,2.820322275E0,-2.334477901E0,-1.933360577E0,4.140276311E0
1.218455175E1,1.546878338E0,-3.004249334E0,-3.410377979E0,4.800939972E0
1.220450243E1,7.545163631E-1,-3.303454876E0,-4.325042248E0,5.494369801E0
1.222445240E1,8.649716377E-1,-3.388085127E0,-4.419584274E0,5.635603066E0
1.224440247E1,1.255765438E0,-3.427028656E0,-4.201856136E0,5.565704559E0
1.226435185E1,1.811164379E0,-3.063111782E0,-3.748106718E0,5.168295093E0
1.228431995E1,1.267912865E0,-2.516104460E0,-3.374462128E0,4.396064073E0
1.230426601E1,7.271623611E-2,-2.549993515E0,-3.548549414E0,4.370349817E0
1.232421958E1,-8.839459419E-1,-2.370604277E0,-3.877559662E0,4.629966954E0
1.234417425E1,-8.856005669E-1,-2.014872551E0,-3.726450443E0,4.327866988E0
1.236411187E1,-3.185892105E-1,-1.677547693E0,-3.183379650E0,3.612419043E0
1.238406154E1,-8.040904999E-2,-1.524904251E0,-2.877083778E0,3.257208875E0
1.240401118E1,3.540291786E-1,-1.618959665E0,-2.622132301E0,3.101925992E0
1.242395979E1,-7.292079926E-2,-1.557695866E0,-3.094430923E0,3.465145970E0
1.244392186E1,2.044601440E-1,-1.811315536E0,-3.041441441E0,3.545847425E0
1.246384563E1,8.527355194E-1,-1.605929136E0,-1.968062878E0,2.679447284E0
1.248381436E1,1.411463737E0,-1.407278776E0,-6.417498589E-1,2.093921278E0
1.250376541E1,1.782084465E0,-1.098970413E0,4.282183647E-1,2.137038132E0
1.252371204E1,2.095532417E0,-1.066996336E0,1.151071072E0,2.618148564E0
1.254366167E1,2.624421597E0,-9.948995113E-1,2.557210922E0,3.796938432E0
1.256361096E1,3.559901714E0,-5.582211018E-1,4.784894943E0,5.989969168E0
1.258358067E1,3.568278790E0,-3.831763268E-1,5.715548515E0,6.748846749E0
1.260352039E1,2.808702469E0,-4.666253328E-1,5.738842010E0,6.406313790E0
1.262346264E1,2.443839073E0,-2.114287615E-1,5.807720184E0,6.304495640E0
1.264341441E1,2.085191727E0,-2.419821024E-1,5.117310524E0,5.531134321E0
1.266337030E1,9.514665604E-1,-3.839071989E-1,3.382080078E0,3.534280550E0
1.268332010E1,9.322834015E-2,-4.910736680E-1,1.686641693E0,1.759148962E0
1.270327022E1,-4.831175804E-1,-2.272788286E-1,2.150716782E-1,5.755988961E-1
1.272321465E1,-8.358392715E-1,3.245449066E-2,-1.056872368E0,1.347835221E0
1.274316259E1,-1.016330719E0,3.011181355E-1,-1.923779488E0,2.196480771E0
1.276312019E1,-7.967166901E-1,5.869131088E-1,-2.531613827E0,2.718141470E0
1.278307014E1,-5.713784695E-1,7.577220201E-1,-2.710556030E0,2.871886141E0
1.280301844E1,-2.724409103E-1,7.116755247E-1,-2.186318874E0,2.315317758E0
1.282296997E1,-4.306073189E-1,5.692220926E-1,-2.101297379E0,2.219208671E0
1.284291054E1,-8.748774529E-1,8.605551720E-2,-2.455428123E0,2.608053561E0
1.286286853E1,-1.416512012E0,-3.718310595E-1,-2.448114395E0,2.852723034E0
1.288281057E1,-1.695074558E0,-4.769256115E-1,-2.362365723E0,2.946439819E0
1.290276324E1,-1.631249428E0,-1.168270111E-1,-2.230790138E0,2.766052763E0
1.292272048E1,-1.409574747E0,3.313934803E-1,-2.153475761E0,2.595029954E0
1.294267016E1,-1.265544891E0,1.028354168E0,-2.144844055E0,2.694340771E0
1.296262009E1,-7.722468376E-1,1.371773958E0,-1.198779106E0,1.978686513E0
1.298256831E1,-2.767105103E-1,1.477877140E0,6.186990738E-1,1.625877637E0
1.300250634E1,-2.267560959E-1,1.463009834E0,2.355909348E0,2.782467422E0
1.302247049E1,-1.439318657E-1,1.199082375E0,3.016682625E0,3.249444411E0
1.304242023E1,-8.039283752E-2,1.184352875E0,3.571773529E0,3.763870466E0
1.306235922E1,-7.669496536E-2,1.133449316E0,3.829068184E0,3.994039638E0
1.308232020E1,-6.707477570E-2,8.303482533E-1,3.528094292E0,3.625110561E0
1.310226076E1,9.537935257E-2,5.054886341E-1,2.689338684E0,2.738093961E0
1.312219440E1,2.711186409E-1,-4.415965080E-2,1.296426773E0,1.325208576E0
1.314217006E1,2.007851601E-1,-2.441105843E-1,6.786184311E-1,7.486171471E-1
1.316212648E1,4.990887642E-1,-3.078666925E-1,1.316473961E0,1.441171463E0
1.318206056E1,2.554411888E-1,-5.127176046E-1,1.782551765E0,1.872330190E0
1.320200297E1,-8.042240143E-2,-7.567247152E-1,1.579027176E0,1.752833957E0
1.322196992E1,-2.031073570E-1,-8.351705074E-1,5.785455704E-1,1.036087521E0
1.324191998E1,3.878383636E-1,-7.199741602E-1,1.038484573E-1,8.243578651E-1
1.326186913E1,9.031491280E-1,-5.191345215E-1,9.987354279E-2,1.046495926E0
1.328181149E1,1.002179623E0,-5.295059681E-1,3.185176849E-1,1.177367437E0
1.330176984E1,6.108689308E-1,-8.093925714E-1,1.559963226E-1,1.025968829E0
1.332172006E1,6.124925613E-2,-1.123212695E0,-4.145154953E-1,1.198824977E0
1.334166069E1,1.151466370E-2,-1.131453991E0,-1.410717964E0,1.808437418E0
1.336161648E1,8.206367493E-2,-5.496213436E-1,-2.002103806E0,2.077796361E0
1.338156454E1,-7.155895233E-2,2.724027634E-2,-2.350964069E0,2.352210614E0
1.340151959E1,-6.399738789E-1,3.161346912E-1,-2.945953369E0,3.031195962E0
1.342146065E1,-5.070853233E-1,7.108676434E-1,-3.250689507E0,3.365924925E0
1.344140973E1,4.035692215E-1,9.305088520E-1,-3.119498253E0,3.280241483E0
1.346135085E1,1.104236603E0,8.460555077E-1,-2.305172920E0,2.692391240E0
1.348131044E1,1.008662701E0,5.693554878E-2,-1.407786846E0,1.732774049E0
1.350126061E1,4.475064278E-1,-7.395155430E-1,-1.491426468E0,1.723803397E0
1.352121532E1,2.256765366E-1,-1.083094358E0,-1.613912582E0,1.956715900E0
1.354116257E1,7.662456036E-1,-1.164941072E0,-1.189823627E0,1.833003080E0
1.356110904E1,1.101499081E0,-1.398521543E0,-1.717319489E-1,1.788478289E0
1.358104241E1,1.216930866E0,-1.590142012E0,8.184080124E-1,2.163160656E0
1.360101978E1,1.244929075E0,-1.757809639E0,8.969106674E-1,2.333279211E0
1.362096041E1,1.085843325E0,-1.673616529E0,2.960176468E-1,2.016847653E0
1.364091988E1,1.313469172E0,-1.379585147E0,5.276794434E-1,1.976588484E0
1.366086259E1,1.931225538E0,-1.094525933E0,1.908057213E0,2.927166108E0
1.368081980E1,1.809178352E0,-9.220483303E-1,3.151842117E0,3.749321027E0
1.370076770E1,1.203402281E0,-1.012822747E0,3.760828972E0,4.076496231E0
1.372071964E1,9.586050510E-1,-4.785792828E-1,3.998290062E0,4.139358065E0
1.374066023E1,9.028723240E-1,-1.149871349E-1,3.254838943E0,3.379700730E0
1.376061765E1,7.231960297E-1,-5.116260052E-2,2.128000259E0,2.248113701E0
1.378058141E1,5.279786587E-1,-1.422523260E-1,1.153115273E0,1.276194350E0
1.380051956E1,5.425815582E-1,-2.114251852E-1,3.362569809E-1,6.724314935E-1
1.382046054E1,6.144037247E-1,-1.789239645E-1,-4.553318024E-1,7.853870207E-1
1.384040422E1,6.100733280E-1,-1.976220608E-1,-1.043192387E0,1.224538403E0
1.386036960E1,6.353230476E-1,-1.757862568E-1,-1.540021896E0,1.675172715E0
1.388031948E1,3.723516464E-1,-2.567162514E-1,-1.828482628E0,1.883586394E0
1.390026968E1,3.008241653E-1,-4.008836746E-1,-1.914732456E0,1.979243107E0
1.392020821E1,2.422001362E-1,-4.064216614E-1,-1.942011833E0,1.998812005E0
1.394015627E1,-6.673049927E-2,-1.945834160E-1,-1.972361565E0,1.983059708E0
1.396011959E1,-3.833754063E-1,2.484302521E-1,-2.180608749E0,2.227947219E0
1.398006917E1,-4.566444159E-1,7.901272774E-1,-2.844107628E0,2.986933785E0
1.400001953E1,-1.212718487E-1,1.229325533E0,-3.341901302E0,3.562899443E0
1.401995434E1,3.275747299E-1,1.446220398E0,-2.770425320E0,3.142310471E0
1.403991220E1,6.283535957E-1,1.119923830E0,-1.225543976E0,1.775110043E0
1.405986942E1,-1.167120934E-1,7.363746166E-1,-4.927988052E-1,8.937113355E-1
1.407981632E1,-7.317311764E-1,2.721424103E-1,-1.656904221E-1,7.980885427E-1
1.409976919E1,-7.179676294E-1,1.361792088E-1,5.114135742E-1,8.919451428E-1
1.411970069E1,1.246169806E-1,2.893085480E-1,1.310336113E0,1.347668192E0
1.413965583E1,1.049065113E0,3.439731598E-1,1.547130585E0,1.900649413E0
1.415961906E1,1.305272818E0,3.151297569E-1,1.117820740E0,1.747159723E0
1.417956928E1,1.171351671E0,8.092904091E-2,6.747817993E-1,1.354232153E0
1.419950431E1,1.251950979E0,9.435844421E-2,1.409143448E0,1.887318210E0
1.421945937E1,1.640835047E0,1.161332130E-1,2.363451958E0,2.879536721E0
1.423941597E1,1.390892506E0,-2.414624691E-1,3.220790863E0,3.516586394E0
1.425936908E1,7.199952602E-1,-7.816925049E-1,3.729973793E0,3.878419890E0
1.427931827E1,5.286788940E-2,-1.209727645E0,3.086725235E0,3.315736519E0
1.429925848E1,-5.008423328E-2,-1.239462852E0,1.942849159E0,2.305089900E0
1.431921437E1,2.899155617E-1,-9.141509533E-1,9.992418289E-1,1.384993585E0
1.433915913E1,5.438288450E-1,-6.949760914E-1,5.333995819E-2,8.840739400E-1
1.435910967E1,6.538834572E-1,-6.077301502E-1,-6.196832657E-1,1.086695385E0
1.437905936E1,7.135653496E-1,-6.388127804E-1,-6.848745346E-1,1.177416836E0
1.439900963E1,3.969914913E-1,-8.352899551E-1,-7.921638489E-1,1.217717174E0
1.441896576E1,1.210727692E-1,-1.000839949E0,-7.213068008E-1,1.239605873E0
1.443891439E1,-1.909995079E-1,-1.052098036E0,-9.431939125E-1,1.425835140E0
1.445885795E1,-1.852049828E-1,-9.759166241E-1,-1.186748981E0,1.547606955E0
1.447880499E1,-4.247686863E-1,-8.562145233E-1,-1.918076038E0,2.143022967E0
1.449875970E1,-7.133972645E-1,-6.116092205E-1,-2.709322453E0,2.867652288E0
1.451871856E1,-8.077025414E-1,-3.363237381E-1,-3.060631752E0,3.183231656E0
1.453865822E1,-3.323301077E-1,-5.634784698E-2,-2.387851715E0,2.411525284E0
1.455861110E1,-8.472764492E-2,1.587769985E-1,-2.026247978E0,2.034224614E0
1.457853788E1,-1.292772293E-1,1.847865582E-1,-1.797500610E0,1.811592426E0
1.459850675E1,-1.544857025E-2,1.652345657E-1,-1.014085293E0,1.027574864E0
1.461845920E1,-6.955504417E-3,2.097508907E-1,2.269687653E-1,3.091255984E-1
1.463841835E1,-4.748737812E-2,9.044170380E-3,1.187226295E0,1.188210051E0
1.465836762E1,-1.631127596E-1,-7.196593285E-2,1.319646835E0,1.331635325E0
1.467831127E1,-4.011594057E-1,-1.491351128E-1,7.576694489E-1,8.701914412E-1
1.469826398E1,-3.207094669E-1,-8.859252930E-2,6.358098984E-1,7.176053409E-1
1.471821753E1,3.361620903E-1,3.804659843E-2,1.477766037E0,1.515996357E0
1.473816832E1,7.573895454E-1,-1.587400436E-1,1.904680252E0,2.055880392E0
1.475811821E1,2.503731251E-1,-1.628537178E-1,1.207708359E0,1.244093049E0
1.477805387E1,1.434473991E-1,-1.050190926E-1,8.442268372E-1,8.627427883E-1
1.479801814E1,4.276797771E-1,-1.928920746E-1,8.907747269E-1,1.006775525E0
1.481796834E1,5.670049191E-1,-4.791679382E-1,1.401498795E0,1.585968273E0
1.483791835E1,9.903559685E-1,-5.072176456E-1,2.762392044E0,2.978067241E0
1.485785896E1,1.016483545E0,-6.927168369E-1,3.532704353E0,3.740734615E0
1.487781479E1,4.504890442E-1,-1.057509661E0,2.458545685E0,2.713984883E0
1.489776734E1,2.299587727E-1,-9.168448448E-1,3.396129608E-1,1.004401548E0
1.491771709E1,4.655022621E-1,-3.806917667E-1,-9.918808937E-1,1.159933741E0
1.493766816E1,4.074308872E-1,-4.948267937E-1,-8.109197617E-1,1.033655815E0
1.495761813E1,2.877213955E-1,-6.388881207E-1,-2.652263641E-1,7.492040152E-1
1.497754930E1,3.223409653E-1,-5.635867119E-1,-3.793811798E-2,6.503637294E-1
1.499749915E1,3.444702625E-1,-4.790976048E-1,-2.596168518E-1,6.446667250E-1
1.501747274E1,-4.546022415E-2,-5.315005779E-1,-8.579044342E-1,1.010227457E0
1.503739946E1,-2.463065386E-1,-5.362932682E-1,-1.359372139E0,1.481948040E0
1.505734989E1,-4.549854994E-1,-4.300317764E-1,-1.800984383E0,1.906694490E0
1.507732023E1,-6.914424896E-1,-4.600677490E-1,-1.991971970E0,2.158172231E0
1.509726574E1,-7.951511741E-1,-4.049060345E-1,-1.824595928E0,2.031099354E0
1.511721756E1,-8.250478506E-1,-2.148487568E-1,-1.876890182E0,2.061451115E0
1.513716755E1,-8.069851398E-1,1.444673538E-2,-2.166457653E0,2.311919654E0
1.515711828E1,-4.692295790E-1,3.090229034E-1,-2.137147903E0,2.209767570E0
1.517706770E1,-3.434875011E-1,5.025100708E-1,-1.873945236E0,1.970322507E0
1.519700194E1,-4.958020449E-1,6.109123230E-1,-1.014785290E0,1.284064920E0
1.521694941E1,-5.013801455E-1,4.931025505E-1,-2.633457184E-1,7.509215292E-1
1.523691800E1,-6.208735704E-1,5.095653534E-1,-2.280740738E-1,8.349602523E-1
1.525686770E1,-5.905750990E-1,6.121492386E-1,-3.260965347E-1,9.109580604E-1
1.527679857E1,2.172631025E-1,5.354299545E-1,6.844015121E-1,8.957086143E-1
1.529674921E1,6.062829494E-1,4.902176857E-1,1.894172668E0,2.048360928E0
1.531669904E1,-5.363392830E-2,2.619075775E-2,1.223387718E0,1.224842873E0
1.533664862E1,-6.845588684E-1,-1.321172714E-2,3.592462540E-1,7.732097161E-1
1.535659873E1,-3.357449770E-1,5.034132004E-1,8.965053558E-1,1.081605932E0
1.537654799E1,2.132391930E-2,5.201539993E-1,9.961404800E-1,1.123970973E0
1.539651710E1,-6.905460358E-2,2.637915611E-1,8.530626297E-1,8.955838186E-1
1.541644935E1,-2.191824913E-1,-1.791114807E-1,1.312430382E0,1.342607684E0
1.543641708E1,-4.719343185E-1,-4.980685711E-1,1.922227859E0,2.041017944E0
1.545636687E1,-3.879374266E-1,-5.820372105E-1,1.639023781E0,1.782038640E0
1.547630470E1,-6.516194344E-2,-5.314724445E-1,7.106237411E-1,8.897725213E-1
1.549626494E1,2.855756283E-1,-4.946455956E-1,4.175434113E-1,7.075098621E-1
1.551619853E1,7.195789814E-1,-6.929388046E-1,4.208383560E-1,1.084003238E0
1.553614832E1,7.986503839E-1,-9.933815002E-1,4.492168427E-1,1.351460326E0
1.555609904E1,6.666270494E-1,-1.264274359E0,2.829980850E-1,1.457006930E0
1.557605680E1,2.085050344E-1,-1.365543365E0,-2.457990646E-1,1.403068143E0
1.559599825E1,-4.263448715E-1,-1.429967642E0,-1.556018829E0,2.155869199E0
1.561594897E1,-9.652667046E-1,-1.421407223E0,-2.803924561E0,3.288484643E0
1.563589831E1,-1.572623610E0,-1.478537321E0,-3.704703331E0,4.287661880E0
1.565584883E1,-2.096767426E0,-1.587290764E0,-4.373696327E0,5.103444442E0
1.567579825E1,-1.188591480E0,-1.382445574E0,-3.371863365E0,3.833192928E0
1.569575736E1,-3.669809103E-1,-9.285748005E-1,-1.930735588E0,2.173629697E0
1.571569831E1,-1.181463599E0,-1.039317846E0,-2.687841415E0,3.114567273E0
1.573565030E1,-1.898571491E0,-1.127988100E0,-3.832961082E0,4.423632164E0
1.575559825E1,-1.545979500E0,-3.503718376E-1,-2.736992359E0,3.162900601E0
1.577554946E1,-3.679106236E-1,1.394958496E-1,3.605184555E-1,5.336580138E-1
1.579549888E1,6.218943596E-1,3.778388500E-1,2.917946815E0,3.007312489E0
1.581544839E1,8.725454807E-1,2.452373505E-1,3.160025597E0,3.287436501E0
1.583539724E1,1.184470654E0,3.202168941E-1,2.914598465E0,3.162339925E0
1.585534808E1,1.827697515E0,4.448573589E-1,3.375066757E0,3.863864891E0
1.587531459E1,2.175386429E0,4.250321388E-1,2.757352829E0,3.537789290E0
1.589524835E1,1.750329494E0,2.944574356E-1,2.159185410E0,2.795074266E0
1.591519810E1,1.725667000E0,1.186180115E-1,1.787443161E0,2.487358012E0
1.593514703E1,1.731362104E0,-1.991906166E-1,1.930317879E0,2.600657369E0
1.595511610E1,1.965771437E0,-5.114390850E-1,2.556221008E0,3.264979804E0
1.597504689E1,1.530022383E0,-8.367662430E-1,3.613107681E0,4.011943837E0
1.599501596E1,3.247830868E-1,-1.271192312E0,2.946958542E0,3.225829908E0
1.601496611E1,-6.389607191E-1,-1.229499817E0,8.232126236E-1,1.611713257E0
1.603489690E1,-2.192342281E-1,-6.346215010E-1,-1.058750153E0,1.253698521E0
1.605486622E1,5.903666019E-1,-7.469546795E-2,-1.115784645E0,1.264550320E0
1.607481616E1,6.872391701E-1,-6.918644905E-2,-1.138387680E0,1.331544574E0
1.609476583E1,4.254848957E-1,2.228903770E-2,-1.234988213E0,1.306418801E0
1.611471623E1,5.327641964E-1,2.649128437E-1,-9.778318405E-1,1.144627281E0
1.613466337E1,5.462217331E-1,5.430226326E-1,-9.520702362E-1,1.224609936E0
1.615461604E1,4.688704014E-1,5.680209398E-1,-5.826044083E-1,9.391033691E-1
1.617456583E1,5.963563919E-2,3.821769953E-1,-4.334297180E-1,5.809276940E-1
1.619451961E1,-4.646575451E-1,-1.323838234E-1,-7.587757111E-1,8.995402662E-1
1.621446589E1,-1.075257778E0,-4.328501225E-1,-2.084640503E0,2.385217924E0
1.623441161E1,-1.583297014E0,-8.819079399E-2,-3.973295212E0,4.278046504E0
1.625436559E1,-1.335671544E0,8.120608330E-1,-4.211169720E0,4.491927390E0
1.627431558E1,-1.069728136E0,1.389222383E0,-3.132302284E0,3.589648272E0
1.629426529E1,-7.625379562E-1,1.951391578E0,-8.860378265E-1,2.274743118E0
1.631421556E1,-6.218092442E-1,1.909628749E0,1.076278687E0,2.278531217E0
1.633415168E1,-8.736485243E-1,1.367615223E0,7.516326904E-1,1.788458790E0
1.635411599E1,-4.508800507E-1,1.179901600E0,5.308465958E-1,1.370130911E0
1.637406590E1,1.247580528E0,8.683625460E-1,1.442711830E0,2.095692752E0
1.639401516E1,2.086223841E0,1.904670000E-1,1.591369629E0,2.630791685E0
1.641396535E1,2.096206903E0,-1.105847359E-1,1.333398819E0,2.486818203E0
1.643391497E1,2.105593920E0,-3.370984793E-1,1.670311928E0,2.708708747E0
1.645386317E1,2.380501509E0,-4.929567575E-1,1.696120262E0,2.964222957E0
1.647381557E1,2.613710165E0,-7.647430897E-2,1.879519463E0,3.220236413E0
1.649376482E1,2.642311811E0,1.354513168E-1,2.383129120E0,3.560823384E0
1.651371323E1,1.406422615E0,3.244420290E-1,2.583944321E0,2.959739086E0
1.653364654E1,9.677274227E-1,-2.741973400E-1,2.480535507E0,2.676702626E0
1.655361516E1,4.118919373E-1,-4.724016190E-1,2.859611511E0,2.927489753E0
1.657356515E1,2.238664627E-1,-3.991539478E-1,3.547353745E0,3.576752529E0
1.659349537E1,2.826817036E-1,-4.587622881E-1,2.718367577E0,2.771262179E0
1.661346460E1,2.194192410E-1,-3.332922459E-1,1.274144173E0,1.335167367E0
1.663340686E1,3.571860790E-1,-4.064890146E-1,3.109369278E-1,6.240969373E-1
1.665336463E1,4.089655876E-1,-6.294913292E-1,-1.599130630E-1,7.675183210E-1
1.667331437E1,3.506729603E-1,-8.781174421E-1,-4.602193832E-1,1.051600517E0
1.669324556E1,3.829813004E-2,-1.283660650E0,-9.826803207E-1,1.617068961E0
1.671321415E1,-3.427042961E-1,-1.618731022E0,-1.733672619E0,2.396530222E0
1.673316467E1,-7.930867672E-1,-1.894454002E0,-2.522110462E0,3.252534976E0
1.675311446E1,-1.172490597E0,-2.076777935E0,-3.380992889E0,4.137493651E0
1.677304459E1,-1.520570993E0,-1.965648293E0,-4.020066261E0,4.726186846E0
1.679298905E1,-1.865869880E0,-1.935847878E0,-4.818565369E0,5.517929832E0
1.681296418E1,-2.353389740E0,-2.010498047E0,-5.187966347E0,6.041153903E0
1.683291263E1,-3.032022476E0,-2.438818216E0,-5.165019989E0,6.466716793E0
1.685286408E1,-3.561621428E0,-2.371610403E0,-4.802775860E0,6.432444252E0
1.687279556E1,-2.669438362E0,-2.117093801E0,-3.770786285E0,5.082009105E0
1.689276386E1,-1.361880302E-1,-7.404600382E-1,-1.015474796E0,1.264127094E0
1.691271389E1,2.009100199E0,4.285442829E-1,1.607297897E0,2.608359703E0
1.693266429E1,2.602942705E0,3.217908144E-1,2.891121864E0,3.903517092E0
1.695261387E1,1.950721264E0,-4.667770863E-1,4.490242004E0,4.917872259E0
1.697256374E1,1.163879633E0,-4.874558449E-1,4.814422607E0,4.977036673E0
1.699251357E1,1.138346672E0,-3.590226173E-2,4.000130653E0,4.159106558E0
1.701246352E1,1.950054646E0,9.158557653E-1,3.365748405E0,3.996219117E0
1.703241416E1,2.474769115E0,1.380923033E0,3.761484146E0,4.709585287E0
1.705236337E1,2.012130022E0,6.496121883E-1,3.959712982E0,4.488874037E0
1.707231353E1,1.783131123E0,4.829969406E-1,4.704744339E0,5.054449717E0
1.709224443E1,1.495440245E0,-2.755964398E-1,4.719529152E0,4.958452414E0
1.711221339E1,7.505736351E-1,-5.953086615E-1,2.818545341E0,2.976902925E0
1.713216354E1,8.087799549E-1,-4.216508269E-1,4.149837494E-1,1.002060850E0
1.715211170E1,1.062763095E0,-1.889688969E-1,-1.543770790E0,1.883720492E0
1.717206324E1,1.248203754E0,-1.921986341E-1,-2.095392227E0,2.446552986E0
1.719200016E1,1.277255416E0,-1.942392588E-1,-1.942353249E0,2.332776549E0
1.721196301E1,1.053678274E0,-5.900377035E-1,-2.011065960E0,2.345798093E0
1.723191333E1,4.784564972E-1,-8.009117246E-1,-2.409043789E0,2.583383864E0
1.725183068E1,3.337500691E-1,-7.129082680E-1,-2.635460854E0,2.750505630E0
1.727181258E1,4.309908748E-1,-5.114744902E-1,-2.489942551E0,2.578211239E0
1.729176277E1,2.719457746E-1,-5.324876308E-1,-2.609267235E0,2.676896166E0
1.731171300E1,2.996399999E-2,-4.220098257E-1,-2.843911171E0,2.875207972E0
1.733166283E1,-1.258979887E-1,-3.876889944E-1,-3.098936081E0,3.125629200E0
1.735161294E1,-2.527487278E-2,-2.241114378E-1,-3.002053738E0,3.010513478E0
1.737156314E1,-4.598686695E-1,-1.152026653E-1,-2.961838245E0,2.999539405E0
1.739149348E1,-8.665383458E-1,-2.700490952E-1,-2.456713676E0,2.619018386E0
1.741146031E1,-1.020285845E0,-1.035269499E-1,-2.138843536E0,2.371993404E0
1.743141222E1,-9.587600827E-1,2.107515335E-1,-1.903032303E0,2.141300785E0
1.745136208E1,-1.163632870E0,2.704880238E-1,-1.067999840E0,1.602444659E0
1.747131036E1,-1.188965082E0,1.682224274E-1,-2.302484512E-1,1.222681930E0
1.749126243E1,-8.836573958E-1,2.687343359E-1,1.389770508E0,1.668691284E0
1.751121210E1,-3.859260082E-1,3.705698252E-1,3.182565689E0,3.227225627E0
1.753116204E1,-1.762964129E-1,4.323155880E-1,3.646918297E0,3.676681963E0
1.755111179E1,-3.055045605E-1,2.466952801E-1,2.479758263E0,2.510655818E0
1.757106133E1,-6.187205911E-1,4.197355509E-1,1.004094124E0,1.251877834E0
1.759099293E1,-3.987921476E-1,7.630217075E-1,5.852499008E-1,1.041035422E0
1.761096156E1,3.681842089E-1,8.360577822E-1,1.243608475E0,1.543085955E0
1.763091183E1,3.182550669E-1,6.159787178E-1,2.304140091E0,2.406195675E0
1.765086174E1,-4.526327848E-1,1.571716070E-1,3.344436646E0,3.378584885E0
1.767081149E1,-7.804492116E-1,-5.776524544E-2,3.926624298E0,4.003850169E0
1.769076160E1,-9.887803793E-1,1.022347212E-1,3.582124710E0,3.717493243E0
1.771071139E1,-1.450197458E0,2.067787647E-1,3.262162209E0,3.575965939E0
1.773065955E1,-1.756284237E0,1.794151068E-1,3.274850845E0,3.720399462E0
1.775061117E1,-1.846408010E0,-3.387658596E-1,3.472721100E0,3.947629248E0
1.777056107E1,-1.980512261E0,-6.275223494E-1,3.240532875E0,3.849320256E0
1.779050915E1,-1.750796080E0,-1.156238556E0,1.725930214E0,2.716801357E0
1.781046069E1,-4.468668699E-1,-1.660393238E0,2.116050720E-1,1.732446943E0
1.783041109E1,2.766597271E-1,-1.944644213E0,-1.178573608E0,2.290680569E0
1.785036091E1,2.317085266E-1,-1.722229242E0,-2.155726910E0,2.768920532E0
1.787028336E1,2.337470055E-1,-1.607208490E0,-2.668319702E0,3.123729634E0
1.789026142E1,3.050854206E-1,-1.572067022E0,-3.023320675E0,3.421248272E0
1.791021076E1,4.435701370E-1,-1.517343163E0,-3.282008648E0,3.642892464E0
1.793014187E1,2.485142946E-1,-1.645194530E0,-3.924174786E0,4.262343504E0
1.795011119E1,1.527053118E-1,-1.963163018E0,-4.362852573E0,4.786628305E0
1.797006090E1,-6.357705593E-2,-2.125491619E0,-4.513459682E0,4.989296040E0
1.799001040E1,-1.241401434E-1,-1.767512321E0,-4.314248085E0,4.663930437E0
1.800996023E1,-1.885538846E-1,-1.361232519E0,-3.618930817E0,3.871067914E0
1.802991046E1,-3.345153332E-1,-9.196684361E-1,-2.773987770E0,2.941546989E0
1.804985870E1,-2.808229625E-2,-9.725700617E-1,-2.129380226E0,2.341141023E0
1.806981016E1,3.737981319E-1,-7.546432018E-1,-2.212440968E0,2.367299398E0
1.808976011E1,3.290190101E-1,-3.817868233E-2,-2.414814949E0,2.437425355E0
1.810970798E1,3.616654873E-2,4.006674290E-1,-9.660911560E-2,4.137338868E-1
1.812965997E1,7.865684032E-1,2.345085144E-3,3.828166962E0,3.908139921E0
1.814960996E1,1.676164627E0,-6.877350807E-2,6.356176376E0,6.573829613E0
1.816955966E1,2.031125784E0,7.713180780E-1,5.677062035E0,6.078604846E0
1.818950985E1,1.625876784E0,1.685668230E0,3.830649376E0,4.489858276E0
1.820945968E1,1.046355247E0,1.758616209E0,3.495514870E0,4.050458552E0
1.822941028E1,7.420133352E-1,1.518890858E0,3.944108963E0,4.291108102E0
1.824935946E1,8.103829622E-1,1.304111123E0,3.589692116E0,3.904268927E0
1.826929330E1,6.475819349E-1,1.379592776E0,2.948457718E0,3.319042257E0
1.828923828E1,9.684051871E-1,1.083237171E0,1.777812958E0,2.296046665E0
1.830918863E1,1.241148114E0,5.104718208E-1,1.766185760E-1,1.353596780E0
1.832914064E1,1.484526634E0,1.777764559E-1,-8.382844925E-1,1.714101714E0
1.834909997E1,1.272138000E0,1.848022938E-1,-1.447196007E0,1.935681601E0
1.836904992E1,7.110993862E-1,-4.534900188E-2,-1.399635315E0,1.570572470E0
1.838900905E1,1.088191867E-1,-4.082099199E-1,-1.144420624E0,1.219907996E0
1.840894984E1,-4.774153233E-1,-7.014383674E-1,-1.198667526E0,1.468586059E0
1.842889946E1,-7.697882652E-1,-8.569665551E-1,-1.575864792E0,1.952002944E0
1.844886315E1,-1.059128523E0,-7.911224365E-1,-2.197299957E0,2.564323505E0
1.846879932E1,-1.322790265E0,-4.535931349E-1,-2.427671432E0,2.801626207E0
1.848875877E1,-1.659530640E0,-4.463042021E-1,-2.839810371E0,3.319299976E0
1.850870783E1,-1.759650230E0,-5.126733780E-1,-2.982385635E0,3.500546672E0
1.852865861E1,-1.748238802E0,-5.014647245E-1,-2.457391262E0,3.057217296E0
1.854860870E1,-1.623837948E0,-2.669358253E-1,-2.135233879E0,2.695798237E0
1.856855027E1,-1.758023381E0,-2.115373611E-1,-2.402043343E0,2.984159259E0
1.858849495E1,-2.160919189E0,-1.797518730E-1,-1.862860680E0,2.858694176E0
1.860844240E1,-2.440196037E0,-4.107044935E-1,-3.051090240E-1,2.493256184E0
1.862840771E1,-2.482275724E0,-4.569571018E-1,1.238987923E0,2.811688752E0
1.864835829E1,-2.422857523E0,-5.612740517E-1,2.143954277E0,3.283566214E0
1.866830798E1,-2.261122465E0,-8.508271575E-1,3.670158386E0,4.393932662E0
1.868825705E1,-2.048692465E0,-6.103546619E-1,4.402402878E0,4.893957982E0
1.870819850E1,-1.883749962E0,7.390725613E-2,3.370856285E0,3.862207697E0
1.872814322E1,-1.384367943E0,9.113570452E-1,3.184152603E0,3.589689968E0
1.874810676E1,-3.034439087E-1,1.407142043E0,4.797045708E0,5.008370439E0
1.876805780E1,2.194737196E-1,1.300076962E0,6.600142479E0,6.730546008E0
1.878800812E1,-2.207814455E-1,8.575387001E-1,6.652842522E0,6.711514783E0
1.880794792E1,-9.335939884E-1,3.358760476E-1,5.622876167E0,5.709741399E0
1.882790627E1,-8.746713400E-1,-7.262873650E-2,3.918455124E0,4.015546718E0
1.884784715E1,-1.348323822E-1,-2.937294841E-1,2.006773949E0,2.032633381E0
1.886778880E1,6.155933142E-1,-1.684387922E-1,7.308883667E-1,9.703218846E-1
1.888773136E1,1.024037600E0,-1.325118542E-1,1.945056915E-1,1.050735391E0
1.890768876E1,9.519220591E-1,-4.709745646E-1,-2.542943954E-1,1.092079799E0
1.892763860E1,6.900348663E-1,-8.578799367E-1,-9.688119888E-1,1.466527454E0
1.894758837E1,5.982004404E-1,-1.148551583E0,-1.823904991E0,2.236882635E0
1.896753820E1,6.627385616E-1,-1.215983868E0,-2.649564743E0,2.989654243E0
1.898748831E1,8.041445017E-1,-1.348786116E0,-2.909339905E0,3.306074870E0
1.900745032E1,4.871341586E-1,-1.517314434E0,-2.777676582E0,3.202347573E0
1.902739712E1,2.269196510E-1,-1.822964668E0,-2.944762707E0,3.470780908E0
1.904735661E1,-1.411082745E-1,-2.165454388E0,-3.632266045E0,4.231129975E0
1.906730536E1,-3.669416010E-1,-2.473716497E0,-4.310973644E0,4.983815126E0
1.908725008E1,-5.938010216E-1,-2.678598404E0,-4.640850544E0,5.391194936E0
1.910720125E1,-5.995818973E-1,-2.800446272E0,-4.736885548E0,5.535348450E0
1.912715609E1,2.892935276E-2,-2.573670864E0,-4.534592628E0,5.214129739E0
1.914709666E1,5.703074932E-1,-1.938743353E0,-4.590154648E0,5.015326123E0
1.916704648E1,8.795931339E-1,-1.795342684E0,-4.678955555E0,5.088178900E0
1.918701035E1,1.567231297E0,-1.672348976E0,-3.075977802E0,3.835962002E0
1.920694638E1,2.463450670E0,-1.496215105E0,3.006410599E-1,2.897867128E0
1.922690573E1,2.746377468E0,-1.015759110E0,3.143339157E0,4.295920952E0
1.924684661E1,2.249242783E0,-6.163775921E-1,3.265027046E0,4.012407761E0
1.926678653E1,1.951757669E0,-4.878690243E-1,2.306123734E0,3.060323653E0
1.928673676E1,2.066957235E0,-9.757149220E-2,1.584124565E0,2.606009027E0
1.930668698E1,2.144567251E0,6.269944906E-1,1.988415718E0,2.991001146E0
1.932664146E1,1.947993040E0,1.406469703E0,3.905370712E0,4.585275816E0
1.934658716E1,2.037893295E0,1.779098511E0,7.115698814E0,7.612579734E0
1.936653699E1,1.310278893E0,1.197353840E0,7.687177658E0,7.889435172E0
1.938648614E1,4.639437199E-1,9.517384768E-1,5.154344559E0,5.261968998E0
1.940643668E1,6.277577877E-1,8.466767669E-1,2.393085480E0,2.614918641E0
1.942638606E1,8.052010536E-1,1.408804893E0,1.043470383E0,1.929225338E0
1.944633581E1,8.731150627E-1,1.708055496E0,1.368282318E0,2.356263991E0
1.946628189E1,5.691437721E-1,1.234171152E0,1.682526588E0,2.162868185E0
1.948623628E1,-8.051371574E-2,5.259739161E-1,1.156469345E0,1.273009177E0
1.950618619E1,-7.629773617E-1,-7.347720861E-2,-3.010149002E-1,8.234945809E-1
1.952613598E1,-1.148700833E0,-2.801675797E-1,-2.095713139E0,2.406246254E0
1.954608686E1,-1.252094626E0,-4.462416172E-1,-3.015326977E0,3.295310200E0
1.956603583E1,-1.218650341E0,-3.910943270E-1,-2.892737389E0,3.163225099E0
1.958598505E1,-1.186964273E0,-6.924474835E-1,-3.498879433E0,3.759059056E0
1.960593529E1,-1.637206674E0,-1.039401770E0,-4.492034435E0,4.892767632E0
1.962588548E1,-2.087490320E0,-1.258262396E0,-5.265004635E0,5.801819878E0
1.964583527E1,-2.302339792E0,-1.280583501E0,-5.130135536E0,5.767057590E0
1.966580589E1,-2.023963928E0,-1.237918496E0,-4.138718128E0,4.770519881E0
1.968571746E1,-1.658322334E0,-1.034157872E0,-2.949682236E0,3.538381093E0
1.970570351E1,-1.419300199E0,-1.043505430E0,-2.490370274E0,3.050452546E0
1.972565334E1,-1.410669446E0,-1.228614092E0,-1.207866669E0,2.226751617E0
1.974560353E1,-1.310923815E0,-1.458961606E0,1.872144699E0,2.711460121E0
1.976555336E1,-1.076735497E0,-1.229590774E0,4.766637802E0,5.039056334E0
1.978550107E1,-6.815316677E-1,-5.839629173E-1,5.899512291E0,5.967389997E0
1.980543486E1,-1.102822542E0,2.991428375E-1,5.077428818E0,5.204419987E0
1.982540300E1,-1.405546665E0,8.098807335E-1,4.311670303E0,4.606730840E0
1.984535108E1,-1.074743032E0,8.060964346E-1,5.143630981E0,5.316183191E0
1.986530266E1,-9.065426588E-1,7.581175566E-1,6.127016068E0,6.239942925E0
1.988525265E1,-8.115609288E-1,5.742877722E-1,5.535866737E0,5.624434027E0
1.990518347E1,-4.663276672E-1,2.127314806E-1,3.513025284E0,3.550220109E0
1.992513509E1,3.003275394E-2,1.526187658E-1,1.577910423E0,1.585558500E0
1.994507890E1,5.460954905E-1,3.998725414E-1,3.286952972E-1,7.524353344E-1
1.996503336E1,1.053696990E0,5.151807070E-1,-4.619226456E-1,1.260579644E0
1.998500219E1,1.257556558E0,2.791342735E-1,-5.876121521E-1,1.415857507E0
2.000493326E1,1.046833158E0,-3.445625305E-3,-4.395122528E-1,1.135360098E0
2.002490189E1,6.568298340E-1,-4.891688824E-1,-7.612228394E-1,1.118110834E0
2.004485228E1,3.818140030E-1,-9.447684288E-1,-1.780414104E0,2.051400424E0
2.006480187E1,1.813727617E-1,-1.230650663E0,-3.192955494E0,3.426712991E0
2.008475190E1,1.983315945E-1,-1.385411501E0,-4.412322998E0,4.628962593E0
2.010469969E1,9.984612465E-2,-1.387662292E0,-5.079240799E0,5.266332973E0
2.012465160E1,5.097746849E-3,-1.449982285E0,-5.344780445E0,5.537973693E0
2.014460138E1,-1.953803301E-1,-1.516772032E0,-5.376550674E0,5.589818246E0
2.016454962E1,-7.555672526E-1,-1.525309086E0,-5.267169952E0,5.535388784E0
2.018448265E1,-1.316579461E0,-1.651465774E0,-4.600889206E0,5.062499596E0
2.020443284E1,-1.255592585E0,-1.717163682E0,-2.862184525E0,3.566127326E0
2.022439931E1,-5.938215256E-1,-1.536891580E0,-1.132030487E0,1.999037957E0
2.024435093E1,7.058589458E-1,-1.018690586E0,9.379701614E-1,1.554270049E0
2.026429831E1,1.296661377E0,-5.818030834E-1,2.449755669E0,2.832159669E0
2.028423325E1,1.104777813E0,-4.461081028E-1,3.061215401E0,3.284902766E0
2.030420074E1,1.206711769E0,-6.274958849E-1,3.465700150E0,3.723033965E0
2.032415048E1,1.737212896E0,-7.034356594E-1,4.195685387E0,4.595269985E0
2.034410055E1,1.819787741E0,-1.826233864E-1,4.561617851E0,4.914604373E0
2.036405042E1,2.182500124E0,2.649030685E-1,4.446325302E0,4.960170271E0
2.038396741E1,1.942274332E0,6.743475199E-1,4.826322556E0,5.246004534E0
2.040393132E1,1.663811922E0,4.962948561E-1,5.156446457E0,5.440911574E0
2.042388123E1,1.167288780E0,-4.371476173E-2,4.172459602E0,4.332885091E0
2.044383167E1,9.162828922E-1,-5.570724010E-1,1.798349380E0,2.093791893E0
2.046378166E1,9.795932770E-1,-7.217182517E-1,-3.664321899E-1,1.270729229E0
2.048374145E1,7.232232094E-1,-6.060782671E-1,-1.444000244E0,1.724969386E0
2.050368103E1,1.534726620E-1,-2.228027582E-1,-1.459085941E0,1.483956438E0
2.052363086E1,-2.812457085E-1,1.114315987E-1,-1.583124161E0,1.611768674E0
2.054360685E1,-5.094594955E-1,4.780671597E-1,-2.013589382E0,2.131346848E0
2.056354520E1,-4.486405849E-1,8.752039671E-1,-2.428008080E0,2.619634248E0
2.058349958E1,-3.408827782E-1,1.105094910E0,-2.612506866E0,2.857031319E0
2.060344958E1,-4.047276974E-1,9.971784353E-1,-2.386138916E0,2.617599715E0
2.062339737E1,-5.392465591E-1,7.639046907E-1,-2.476749420E0,2.647380766E0
2.064334956E1,-5.620596409E-1,6.180144548E-1,-2.899990082E0,3.017912421E0
2.066327989E1,-3.691363335E-1,7.614265680E-1,-2.990243912E0,3.107666440E0
2.068324905E1,-6.955838203E-2,7.942452431E-1,-2.426859856E0,2.554469149E0
2.070319900E1,-1.915979385E-2,6.422094107E-1,-7.852048874E-1,1.014567267E0
2.072314879E1,-3.155791759E-1,4.312777519E-1,3.835115433E-1,6.577779408E-1
2.074309719E1,-4.942760468E-1,9.318614006E-2,7.062931061E-1,8.670884723E-1
2.076304868E1,-5.235452652E-1,-5.001153946E-1,4.442214966E-2,7.253884339E-1
2.078299847E1,-4.541511536E-1,-8.982046843E-1,-2.377710342E-1,1.034195334E0
2.080294655E1,-8.498501778E-2,-1.103430748E0,7.944412231E-1,1.362321080E0
2.082289813E1,8.177447319E-2,-1.242185354E0,1.807252884E0,2.194510083E0
2.084284812E1,7.390189171E-2,-1.598874688E0,1.725785255E0,2.353762202E0
2.086279648E1,-1.197226048E-1,-1.335572958E0,8.026714325E-1,1.562808388E0
2.088274773E1,6.848120689E-2,-7.312979698E-1,7.165670395E-1,1.026135819E0
2.090269796E1,6.087987423E-1,-5.650579929E-2,2.774875641E0,2.841436896E0
2.092264759E1,1.033516645E0,5.498287678E-1,5.153730392E0,5.285017057E0
2.094259770E1,8.027455807E-1,4.161257744E-1,5.085461617E0,5.165218387E0
2.096254757E1,1.989879608E-1,-2.831039429E-1,2.843902588E0,2.864878004E0
2.098247880E1,-6.530022621E-2,-4.853686094E-1,6.647586823E-1,8.256820891E-1
2.100244731E1,9.691071510E-2,-1.397416592E-1,-1.963262558E-1,2.597372070E-1
2.102239693E1,4.111323357E-1,3.312598467E-1,3.346500397E-1,6.251028175E-1
2.104236495E1,6.481628418E-1,2.593173981E-1,3.693675995E-1,7.898056761E-1
2.106229557E1,3.971664906E-1,-1.274476051E-1,-3.096342087E-1,5.194780616E-1
2.108224678E1,1.067657471E-1,-2.440996170E-1,-7.521142960E-1,7.979094322E-1
2.110219693E1,-7.894897461E-2,-1.298521757E-1,-9.605484009E-1,9.724956342E-1
2.112216035E1,-2.833364010E-1,-6.981062889E-2,-1.026117325E0,1.066803545E0
2.114209659E1,-4.881527424E-1,-1.408987045E-1,-1.576293468E0,1.656154173E0
2.116204642E1,-8.934872150E-1,-3.789775372E-1,-2.815214157E0,2.977813649E0
2.118199474E1,-1.042512298E0,-5.155098438E-1,-3.540083408E0,3.726227694E0
2.120194632E1,-1.057514668E0,-5.142927170E-1,-3.535668373E0,3.726095157E0
2.122189614E1,-7.610949278E-1,-4.938552380E-1,-3.273142338E0,3.396559914E0
2.124184597E1,-4.737882614E-1,-4.116714001E-1,-3.012533188E0,3.077223565E0
2.126179588E1,-1.660864353E-1,-3.433389664E-1,-2.733675003E0,2.760153143E0
2.128174575E1,-1.719913483E-1,-3.632228374E-1,-1.946274757E0,1.987334216E0
2.130169578E1,1.461148262E-2,-4.034383297E-1,-8.624925613E-1,9.522969073E-1
2.132166371E1,3.463041782E-1,-3.920419216E-1,2.765331268E-1,5.916874364E-1
2.134157647E1,8.461713791E-1,-4.144175053E-1,1.721736908E0,1.962683329E0
2.136152662E1,1.151060104E0,-3.283662796E-1,3.317512512E0,3.526847466E0
2.138147584E1,1.251764774E0,-5.130288601E-1,3.296072960E0,3.562893574E0
2.140142693E1,1.490546465E0,-4.908065796E-1,2.326249123E0,2.806074632E0
2.142137574E1,1.633876085E0,-5.317735672E-2,1.999508858E0,2.582714573E0
2.144133367E1,1.813554287E0,1.089861393E-1,2.937952995E0,3.454334224E0
2.146126494E1,1.476176500E0,-3.847627640E-1,3.950569153E0,4.234871436E0
2.148124451E1,6.483404636E-1,-9.578841925E-1,3.834664345E0,4.005313736E0
2.150119702E1,-2.167556286E-1,-1.315136194E0,2.190822601E0,2.564423889E0
2.152112561E1,-6.207902431E-1,-1.124183297E0,6.952428818E-1,1.460318895E0
2.154109481E1,-3.243482113E-1,-7.231702805E-1,-1.610269547E-1,8.087686300E-1
2.156101269E1,1.855401993E-1,-3.776426315E-1,-5.471220016E-1,6.902040332E-1
2.158097518E1,6.584737301E-1,-1.148915291E-1,-5.814924240E-1,8.859577619E-1
2.160092557E1,5.335519314E-1,4.370617867E-2,-9.150323868E-1,1.060128371E0
2.162087528E1,2.138094902E-1,3.745079041E-2,-1.484306335E0,1.500094116E0
2.164082531E1,-1.092479229E-1,-3.429913521E-2,-1.852331161E0,1.855866986E0
2.166077469E1,-5.611032248E-1,-1.872518063E-1,-2.139360905E0,2.219631760E0
2.168072440E1,-1.133900166E0,-2.652406693E-1,-2.252357483E0,2.535586013E0
2.170069144E1,-1.321505427E0,-2.975869179E-1,-2.376146317E0,2.735142754E0
2.172064383E1,-1.266852021E0,-2.560117245E-1,-2.903010845E0,3.177723716E0
2.174059337E1,-1.028789043E0,-1.290431023E-1,-2.698272705E0,2.890628757E0
2.176054161E1,-8.158352375E-1,6.507396698E-3,-2.245524406E0,2.389144060E0
2.178049376E1,-8.128166199E-1,1.531019211E-1,-1.833267212E0,2.011213496E0
2.180044277E1,-8.310110569E-1,2.032041550E-1,-1.598951817E0,1.813427202E0
2.182039048E1,-7.134603262E-1,1.733465195E-1,-1.375518799E0,1.559207048E0
2.184034247E1,-7.229781151E-2,3.610730171E-2,-1.947469711E-1,2.108485085E-1
2.186029229E1,9.635611773E-1,-1.361687183E-1,1.766563416E0,2.016863496E0
2.188024237E1,2.520255089E0,-2.518122196E-1,2.643099785E0,3.660747407E0
2.190017323E1,2.849805355E0,-2.628302574E-2,1.381761551E0,3.167230074E0
2.192011138E1,2.297382593E0,7.562317848E-1,3.360700607E-1,2.441883776E0
2.194009177E1,1.570231676E0,8.585109711E-1,1.487669945E0,2.327193690E0
2.196004176E1,9.391789436E-1,4.082891941E-1,3.266316414E0,3.423095101E0
2.197999183E1,9.571957588E-2,8.504843712E-2,4.126976967E0,4.128962867E0
2.199992266E1,-4.076855183E-1,5.848455429E-2,3.976262093E0,3.997535260E0
2.201988742E1,-5.631533861E-1,-8.564734459E-2,2.760269165E0,2.818432732E0
2.203981071E1,-7.377432585E-1,-2.357182503E-1,1.229062080E0,1.452729089E0
2.205977206E1,-9.224650860E-1,-2.774310112E-1,4.795885086E-1,1.076064561E0
2.207973893E1,-7.633339167E-1,-3.512971401E-1,7.934474945E-1,1.155702070E0
2.209969063E1,-3.486732244E-1,-3.051340580E-1,1.592823982E0,1.658845396E0
2.211964087E1,-2.437915802E-1,-5.115094185E-1,1.226665497E0,1.351215919E0
2.213958862E1,-4.818732738E-1,-7.708969116E-1,4.569396973E-1,1.017486013E0
2.215954077E1,-7.535355091E-1,-8.861603737E-1,-2.684402466E-1,1.193799036E0
2.217949047E1,-9.007468224E-1,-9.661829472E-1,-9.134616852E-1,1.606009519E0
2.219944018E1,-9.853199720E-1,-1.075050831E0,-1.568336487E0,2.141557628E0
2.221937153E1,-1.065574288E0,-1.201505184E0,-2.269665718E0,2.780367915E0
2.223933995E1,-8.571811914E-1,-1.181017399E0,-3.209813595E0,3.525970080E0
2.225927062E1,-2.727713585E-1,-9.427728653E-1,-3.302088737E0,3.444853396E0
2.227923965E1,4.963569641E-1,-4.910938740E-1,-2.602503300E0,2.694543905E0
2.229917125E1,6.707736254E-1,-2.379417419E-1,-2.809247017E0,2.898003163E0
2.231912380E1,5.533454418E-1,-1.580350399E-1,-3.520290852E0,3.567017512E0
2.233908677E1,1.204901934E-1,8.716034889E-2,-3.227781773E0,3.231205655E0
2.235903941E1,-4.247136116E-1,7.647943497E-2,-1.603757858E0,1.660804029E0
2.237898915E1,-5.466710329E-1,-5.644249916E-2,-3.137979507E-1,6.328539546E-1
2.239891933E1,-3.577930927E-1,-3.203439713E-2,4.536485672E-1,5.786528513E-1
2.241888812E1,1.222007275E-1,1.567099094E-1,7.464408875E-1,7.724409440E-1
2.243880971E1,5.699946880E-1,2.728867531E-1,1.801664352E0,1.909281426E0
2.245877056E1,9.529590607E-1,-2.368593216E-2,2.914299965E0,3.066241393E0
2.247873874E1,8.957607746E-1,-5.431542397E-1,2.507998466E0,2.717988264E0
2.249867058E1,1.075149536E0,-3.527514935E-1,2.107538223E0,2.392090614E0
2.251861960E1,1.631641150E0,1.810314655E-1,2.123890877E0,2.684387768E0
2.253857012E1,1.864303827E0,6.118655205E-2,2.240031242E0,2.914980707E0
2.255851970E1,1.568840504E0,-3.526251316E-1,2.567786217E0,3.029708082E0
2.257846957E1,9.407346249E-1,-7.420854568E-1,2.823462486E0,3.067183214E0
2.259841952E1,3.547379971E-1,-1.106288075E0,2.225180626E0,2.510207396E0
2.261838774E1,2.502422333E-1,-1.355767131E0,7.648391724E-1,1.576611762E0
2.263833744E1,4.899475574E-1,-1.255730391E0,-3.576335907E-1,1.394564164E0
2.265828520E1,8.121759892E-1,-9.760749340E-1,-6.721220016E-1,1.436697637E0
2.267823706E1,9.997859001E-1,-6.548266411E-1,-5.372714996E-1,1.310355082E0
2.269818733E1,9.347968102E-1,-5.981199741E-1,-6.827478409E-1,1.302972446E0
2.271813488E1,6.731092930E-1,-6.242499352E-1,-9.965410233E-1,1.354938417E0
2.273808711E1,3.079433441E-1,-7.246093750E-1,-1.546219826E0,1.735132156E0
2.275803665E1,-1.325445175E-1,-7.833886147E-1,-1.944437981E0,2.100501091E0
2.277798498E1,-5.764060020E-1,-7.965559959E-1,-2.198481083E0,2.408332287E0
2.279793643E1,-9.475451708E-1,-7.429652214E-1,-2.635790825E0,2.897797861E0
2.281788626E1,-1.095113635E0,-5.570816994E-1,-3.024867058E0,3.264878958E0
2.283783649E1,-1.045989871E0,-3.286619186E-1,-3.121450424E0,3.308408412E0
2.285776740E1,-8.061894178E-1,1.088247299E-1,-2.665816784E0,2.787178380E0
2.287771710E1,-4.921383858E-1,4.452419281E-1,-2.210699081E0,2.308166154E0
2.289768988E1,-2.547036409E-1,7.015450001E-1,-1.815799236E0,1.963203046E0
2.291763059E1,-1.328294277E-1,8.439948559E-1,-1.520180702E0,1.743823483E0
2.293756874E1,-2.762777805E-1,1.081230640E0,-1.048833847E0,1.531483447E0
2.295751735E1,-3.989830017E-1,1.079574108E0,-2.298851013E-1,1.173675786E0
2.297746763E1,-1.239340305E-1,1.052168846E0,1.175711632E0,1.582629700E0
2.299741640E1,2.431681156E-1,1.062100649E0,2.855019569E0,3.055867350E0
2.301736683E1,8.315138817E-1,1.074175596E0,3.748665810E0,3.987200007E0
2.303732000E1,1.116773367E0,9.569635391E-1,2.689750671E0,3.065570199E0
2.305726669E1,1.040266275E0,9.959187508E-1,1.511105537E0,2.087450126E0
2.307721656E1,7.841215134E-1,1.309503317E0,1.710622787E0,2.292569695E0
2.309716525E1,5.314052105E-1,1.162066936E0,2.342210770E0,2.668097141E0
2.311711544E1,2.704913616E-1,6.624324322E-1,2.748798370E0,2.840400462E0
2.313706519E1,5.533576012E-2,2.976677418E-1,3.277181625E0,3.291137727E0
2.315701506E1,-8.747744560E-2,3.875279427E-2,3.226693153E0,3.228111335E0
2.317696517E1,-1.665465832E-1,-2.904562950E-1,1.952522278E0,1.981021421E0
2.319689892E1,-7.436037064E-2,-4.422581196E-1,8.486232758E-1,9.598349719E-1
2.321686604E1,7.633304596E-2,-4.905765057E-1,6.445951462E-1,8.136307174E-1
2.323681632E1,6.460499763E-2,-7.512366772E-1,6.366844177E-1,9.868624011E-1
2.325676598E1,-1.311404705E-1,-1.043293238E0,4.001255035E-1,1.125059563E0
2.327671500E1,-2.628380060E-1,-1.072958946E0,1.722717285E-2,1.104817403E0
2.329666519E1,-2.858076096E-1,-9.829276800E-1,-4.840011597E-1,1.132294103E0
2.331663321E1,-2.707134485E-1,-9.012727737E-1,-1.133836746E0,1.473487072E0
2.333658291E1,-4.252103567E-1,-9.665474892E-1,-1.713560581E0,2.012786070E0
2.335653282E1,-6.526311636E-1,-1.098915815E0,-2.350848198E0,2.675823360E0
2.337648249E1,-9.424797893E-1,-1.204261422E0,-3.154916763E0,3.505996793E0
2.339643248E1,-1.009033799E0,-1.167162180E0,-3.653033257E0,3.965484679E0
2.341638251E1,-7.842292190E-1,-1.045435905E0,-3.199722290E0,3.456323832E0
2.343633205E1,-3.329391479E-1,-8.411300182E-1,-2.316411972E0,2.486787608E0
2.345628200E1,-2.738140821E-1,-6.139152050E-1,-2.134858131E0,2.238187944E0
2.347621348E1,-2.722697258E-1,-4.766292572E-1,-1.978352070E0,2.053091124E0
2.349617999E1,-1.113108397E-1,-4.022707939E-1,-1.354101181E0,1.416969267E0
2.351613222E1,-4.264485836E-2,-1.461379528E-1,-6.545772552E-1,6.720463290E-1
2.353608156E1,1.892590523E-1,-6.302475929E-2,3.587722778E-3,1.995093504E-1
2.355602927E1,3.567872047E-1,-2.086651325E-1,5.627899170E-1,6.982626566E-1
2.357598121E1,4.527535439E-1,-4.915523529E-1,1.230945587E0,1.400655748E0
2.359593088E1,7.047299147E-1,-5.857508183E-1,1.811258316E0,2.029878066E0
2.361588099E1,1.061641455E0,-5.113947392E-1,1.813050270E0,2.162350212E0
2.363583061E1,1.190600514E0,-7.585740089E-2,1.503313065E0,1.919175370E0
2.365578048E1,1.443989754E0,4.005141258E-1,1.213150978E0,1.928017964E0
2.367573035E1,1.539686203E0,3.680372238E-1,1.312826157E0,2.056598531E0
2.369566231E1,1.431061029E0,1.482362747E-1,2.342660904E0,2.749176199E0
2.371561153E1,9.408714771E-1,1.995854378E-1,3.773513794E0,3.894159709E0
2.373556144E1,2.749786377E-1,-7.478880882E-2,3.707176208E0,3.718112701E0
2.375551261E1,3.010416031E-2,-3.865892887E-1,2.403787613E0,2.434861891E0
2.377548034E1,4.116287231E-1,-5.488407612E-1,9.423093796E-1,1.165594850E0
2.379543001E1,8.321213722E-1,-5.818095207E-1,-3.605747223E-2,1.015986436E0
2.381537784E1,1.153506756E0,-4.529674053E-1,-1.671648026E-1,1.250480459E0
2.383532913E1,1.099223852E0,-5.290601254E-1,-5.318260193E-1,1.330802994E0
2.385527921E1,8.401427269E-1,-6.549642086E-1,-1.331780434E0,1.705419901E0
2.387522692E1,3.757050037E-1,-6.322650909E-1,-2.106009483E0,2.230737398E0
2.389517898E1,-1.409316063E-2,-5.273561478E-1,-2.390860558E0,2.448370342E0
2.391511721E1,-3.560879230E-1,-4.815931320E-1,-2.364248276E0,2.438934288E0
2.393507900E1,-7.765206099E-1,-6.044945717E-1,-2.802348614E0,2.970110385E0
2.395502855E1,-1.041464329E0,-6.405789852E-1,-3.086706638E0,3.320052297E0
2.397497825E1,-1.125069737E0,-2.031936646E-1,-2.650819778E0,2.886852105E0
2.399492808E1,-9.838712811E-1,3.156085014E-1,-2.371179581E0,2.586523541E0
2.401487868E1,-8.477573395E-1,5.301017761E-1,-2.150842667E0,2.371882075E0
2.403482778E1,-8.696322441E-1,6.933786869E-1,-1.284483910E0,1.699097748E0
2.405477834E1,-7.185785174E-1,9.127483368E-1,-2.855920792E-1,1.196255595E0
2.407472804E1,-5.201873779E-1,1.225302935E0,4.773845673E-1,1.414163433E0
2.409467771E1,-4.331425428E-1,1.331490040E0,8.912611008E-1,1.659766411E0
2.411462782E1,-6.422781944E-2,1.114180565E0,1.645356178E0,1.988144989E0
2.413457569E1,4.369819164E-1,9.598336220E-1,3.268501282E0,3.434433637E0
2.415452678E1,5.943390131E-1,7.020742893E-1,3.484419823E0,3.603793650E0
2.417447665E1,5.294219255E-1,4.423077106E-1,2.150766373E0,2.258698669E0
2.419442477E1,3.082396984E-1,5.815429688E-1,1.201625824E0,1.370076114E0
2.421437631E1,1.725012064E-1,5.523915291E-1,1.076550484E0,1.222233207E0
2.423432626E1,7.963192463E-2,3.453016281E-1,1.462834358E0,1.505144118E0
2.425427620E1,-2.006469965E-1,-1.741645336E-1,1.923613548E0,1.941875790E0
2.427422595E1,-5.095819831E-1,-4.784529209E-1,2.532061577E0,2.626771178E0
2.429417586E1,-5.823007226E-1,-5.631608963E-1,2.047259331E0,2.201702771E0
2.431412573E1,-4.687156677E-1,-6.322968006E-1,4.443693161E-1,9.038571294E-1
2.433407560E1,-3.032971621E-1,-5.590443611E-1,-5.324668884E-1,8.294822201E-1
2.435402538E1,-3.774583340E-2,-3.294656277E-1,-5.444202423E-1,6.374682329E-1
2.437397517E1,1.503230333E-1,-1.213278770E-1,1.032867432E-1,2.190562015E-1
2.439392524E1,4.378211498E-1,-8.961033821E-2,9.299621582E-1,1.031768863E0
2.441385977E1,4.411749840E-1,-2.410519123E-1,9.412565231E-1,1.067101323E0
2.443382482E1,2.709730864E-1,-4.435544014E-1,-2.457237244E-2,5.203563414E-1
2.445374998E1,4.482734203E-2,-4.442801476E-1,-1.328182220E0,1.401236008E0
2.447372533E1,-7.894515991E-2,-3.883321285E-1,-1.900780678E0,1.941649136E0
2.449365078E1,-3.400975466E-1,-3.581504822E-1,-2.130499840E0,2.186999697E0
2.451362283E1,-6.167033911E-1,-4.077239037E-1,-2.588447571E0,2.691955178E0
2.453354364E1,-7.161776423E-1,-4.895353317E-1,-3.119369507E0,3.237749431E0
2.455350523E1,-7.570406199E-1,-3.139810562E-1,-3.319142342E0,3.418830281E0
2.457343980E1,-8.113661408E-1,3.347063065E-2,-3.106183052E0,3.210577588E0
2.459340533E1,-8.312946558E-1,1.836113930E-1,-2.445575714E0,2.589518203E0
2.461337322E1,-8.412914276E-1,1.820673943E-1,-1.555040359E0,1.777377372E0
2.463332313E1,-1.006772041E0,2.203841209E-1,-9.561748505E-1,1.405855415E0
2.465327308E1,-9.933193922E-1,2.662138939E-1,-4.973897934E-1,1.142344019E0
2.467322283E1,-6.544120312E-1,2.808179855E-1,1.367216110E-1,7.251252626E-1
2.469317274E1,-2.069619894E-1,3.976778984E-1,1.107063293E0,1.194391105E0
2.471312265E1,8.944416046E-2,3.202955723E-1,2.178213120E0,2.203452270E0
2.473307235E1,5.177400112E-1,7.442140579E-2,3.557129860E0,3.595381218E0
2.475302238E1,7.778756618E-1,-1.500835419E-1,4.306298256E0,4.378563724E0
2.477295345E1,8.478002548E-1,-3.052191734E-1,3.977455139E0,4.078243911E0
2.479292245E1,7.888908386E-1,-2.441027164E-1,3.012502670E0,3.123636859E0
2.481287231E1,8.312746286E-1,-1.490778923E-1,2.506009102E0,2.644489241E0
2.483282051E1,4.818913937E-1,-1.495473385E-1,2.476625443E0,2.527500209E0
2.485275313E1,-1.794576645E-2,-5.006184578E-1,1.507328033E0,1.588388709E0
2.487270345E1,-2.506979108E-1,-7.093532085E-1,-6.257820129E-2,7.549486395E-1
2.489265340E1,-8.649885654E-3,-6.657967567E-1,-1.222678185E0,1.392229178E0
2.491260229E1,8.973990679E-1,-4.665648937E-1,-1.291476250E0,1.640402021E0
2.493255305E1,1.994746208E0,-1.561858654E-1,-7.530279160E-1,2.137862835E0
2.495252086E1,2.521766663E0,1.764545441E-1,-1.465330124E-1,2.532175987E0
2.497247065E1,2.450681686E0,8.973813057E-2,-1.866073608E-1,2.459413745E0
2.499242040E1,1.988103867E0,-2.692508698E-1,-9.162368774E-1,2.205570908E0
2.501235163E1,1.428936362E0,-5.498414040E-1,-1.732353210E0,2.311975853E0
2.503232005E1,9.085786343E-1,-6.785049438E-1,-2.134156227E0,2.416714070E0
2.505226984E1,5.273727775E-1,-7.328021526E-1,-2.529160023E0,2.685474160E0
2.507222020E1,1.164122820E-1,-7.472965717E-1,-3.205422878E0,3.293438904E0
2.509216823E1,-1.757355332E-1,-6.412281990E-1,-3.735810757E0,3.794514276E0
2.511211985E1,-2.858273983E-1,-2.069938183E-1,-3.765765190E0,3.782265354E0
2.513206976E1,-3.154294491E-1,2.594187260E-1,-3.411732674E0,3.436089878E0
2.515201763E1,-2.956479192E-1,5.216100216E-1,-2.857226372E0,2.919456670E0
2.517196897E1,-3.435174525E-1,7.779564857E-1,-2.252019882E0,2.407242008E0
2.519190524E1,-3.741703033E-1,9.343750477E-1,-1.982361794E0,2.223245022E0
2.521186858E1,-5.872438550E-1,8.730976582E-1,-1.654391289E0,1.960654330E0
2.523181837E1,-3.419676721E-1,8.769748211E-1,-6.117973328E-1,1.122640950E0
2.525174940E1,2.548431158E-1,1.158109426E0,1.368541718E0,1.810819950E0
2.527171810E1,3.777151108E-1,1.441140652E0,3.583514214E0,3.880867068E0
2.529167103E1,2.545678616E-1,8.452126980E-1,3.942463875E0,4.040075582E0
2.531159904E1,-6.412339211E-2,4.419109821E-1,3.420715332E0,3.449737745E0
2.533154435E1,-1.313288212E-1,6.564621925E-1,3.379167557E0,3.444845896E0
2.535151798E1,-8.918344975E-2,5.746221542E-1,3.426309586E0,3.475304546E0
2.537146761E1,-5.729340315E-1,1.921101809E-1,3.075586319E0,3.134388446E0
2.539141731E1,-1.126000047E0,-2.171063423E-1,2.957122803E0,3.171685126E0
2.541136588E1,-1.631071210E0,-3.555570841E-1,2.983398438E0,3.418695712E0
2.543131652E1,-1.592640877E0,-5.126050711E-1,1.902935982E0,2.533857587E0
2.545126672E1,-1.358027577E0,-3.700362444E-1,6.952896118E-1,1.569902343E0
2.547121471E1,-1.198468924E0,-1.787346601E-1,6.664113998E-1,1.382887556E0
2.549116633E1,-1.119911671E0,-2.900747061E-1,1.352320671E0,1.779639481E0
2.551111701E1,-1.238537312E0,-6.479704380E-1,1.569873810E0,2.101985761E0
2.553104719E1,-1.435950398E0,-8.723776340E-1,8.839254379E-1,1.898504797E0
2.555101577E1,-1.483540535E0,-8.815705776E-1,-3.206720352E-1,1.755246352E0
2.557096568E1,-1.413273335E0,-9.507738352E-1,-1.638336182E0,2.363357325E0
2.559091563E1,-1.407365441E0,-1.085981965E0,-2.660564899E0,3.199787477E0
2.561086542E1,-1.438632250E0,-1.258911133E0,-3.378329754E0,3.881704769E0
2.563079689E1,-1.375142574E0,-1.335826278E0,-4.051618099E0,4.482305006E0
2.565076210E1,-1.191066027E0,-1.395401955E0,-4.509123325E0,4.868056908E0
2.567069659E1,-8.934495449E-1,-1.525138259E0,-4.809112549E0,5.123657122E0
2.569066514E1,-4.519834518E-1,-1.664641261E0,-4.781516552E0,5.083130935E0
2.571061447E1,-1.799632311E-1,-1.239803553E0,-4.011486530E0,4.202561576E0
2.573056312E1,-2.830500603E-1,-1.077063560E0,-3.418080330E0,3.594920916E0
2.575050941E1,-4.134846926E-1,-8.105889559E-1,-2.454835892E0,2.618060981E0
2.577046412E1,-5.894049406E-1,-8.940665722E-1,-1.606750965E0,1.930907011E0
2.579038925E1,-3.413302898E-1,-1.516345024E0,-9.379768372E-1,1.815381267E0
2.581034490E1,6.062567234E-1,-1.184152842E0,1.822435379E0,2.256332395E0
2.583031340E1,1.073527575E0,-8.779636621E-1,4.767075539E0,4.964704506E0
2.585026339E1,9.068338871E-1,-1.499985218E0,6.335082054E0,6.573094247E0
2.587021371E1,3.421764374E-1,-1.689693093E0,6.386977196E0,6.615559323E0
2.589016329E1,5.168137550E-1,-1.088741064E0,5.322015762E0,5.456766931E0
2.591011271E1,1.172884703E0,1.036098003E-1,5.190562248E0,5.322436469E0
2.593006250E1,1.537335157E0,1.227848887E0,7.178189278E0,7.442943879E0
2.595001224E1,1.217686653E0,1.407961965E0,8.281236649E0,8.487873592E0
2.596994396E1,5.821368694E-1,8.434063196E-1,6.993820190E0,7.068503265E0
2.598991198E1,6.029963493E-1,3.344851136E-1,4.664975166E0,4.715663070E0
2.600984301E1,1.355932951E0,1.409614086E-2,2.993052483E0,3.285896534E0
2.602981062E1,2.190037727E0,-1.872172952E-1,2.023880005E0,2.987876476E0
2.604974340E1,2.731835127E0,-1.622720957E-1,9.940176010E-1,2.911584858E0
2.606968944E1,2.906460285E0,-1.611183882E-1,-6.017198563E-1,2.972463172E0
2.608964297E1,2.496465445E0,-4.432446957E-1,-2.573369503E0,3.612621787E0
2.610959284E1,1.859537482E0,-9.145157337E-1,-4.404082775E0,4.867254233E0
2.612954279E1,1.275505662E0,-1.388424873E0,-5.892239094E0,6.186527286E0
2.614949294E1,8.341994286E-1,-1.628651857E0,-6.993618011E0,7.229044781E0
2.616944281E1,5.975165963E-1,-1.515076637E0,-7.509624004E0,7.684200413E0
2.618939182E1,3.677120209E-1,-1.380518675E0,-7.891144753E0,8.019427002E0
2.620936086E1,2.540020645E-1,-1.345754266E0,-7.938014030E0,8.055286360E0
2.622930991E1,2.384126186E-3,-1.317102075E0,-7.568491936E0,7.682241453E0
2.624925970E1,-4.700052738E-2,-1.103107572E0,-6.276475430E0,6.372848592E0
2.626920940E1,-1.642525196E-3,-7.988868952E-1,-4.856151104E0,4.921425252E0
2.628915935E1,1.020396948E-1,-2.330262661E-1,-2.908808708E0,2.919911204E0
2.630910934E1,-1.027182341E-1,1.065506935E-1,-1.289311409E0,1.297778099E0
2.632905909E1,-3.455801010E-1,-1.769375801E-2,-1.483068466E-1,3.764752263E-1
2.634897368E1,-6.178861856E-1,-2.038848400E-2,1.342155457E0,1.477694251E0
2.636896546E1,-2.371307611E-1,-1.344215870E-1,3.862228394E0,3.871835266E0
2.638890910E1,4.492518902E-1,-1.959362030E-1,6.666684151E0,6.684676194E0
2.640885836E1,7.636082172E-1,-6.692397594E-2,7.741773605E0,7.779629482E0
2.642880619E1,6.425113678E-1,1.449671984E-1,7.170312881E0,7.200501591E0
2.644875785E1,5.514984131E-1,8.280534744E-1,6.398523331E0,6.475409166E0
2.646870776E1,8.750274181E-1,1.348290801E0,6.070638657E0,6.279826014E0
2.648865791E1,8.149151802E-1,1.703124762E0,7.705015182E0,7.932967898E0
2.650860746E1,6.718039513E-1,1.284079790E0,8.978383064E0,9.094588716E0
2.652853832E1,8.220314980E-2,-1.005016565E-1,6.557476044E0,6.558761316E0
2.654850707E1,-1.429512501E-1,-1.186029553E0,2.718868256E0,2.969738331E0
2.656845682E1,8.708894253E-2,-1.183475733E0,-8.647441864E-2,1.189822306E0
2.658840726E1,4.944176674E-1,-9.488220215E-1,-1.857470512E0,2.143573830E0
2.660835647E1,8.308061361E-1,-9.650318623E-1,-3.257283211E0,3.497344599E0
2.662828840E1,9.289313555E-1,-1.020425558E0,-4.347568512E0,4.561308337E0
2.664823786E1,5.606867075E-1,-1.388783216E0,-5.110359192E0,5.325303698E0
2.666818882E1,2.312670946E-1,-2.135736942E0,-5.769660473E0,6.156609353E0
2.668813743E1,3.267878294E-2,-2.443886280E0,-6.434090614E0,6.882671726E0
2.670808803E1,-7.836717367E-2,-1.877631426E0,-5.871544838E0,6.164955796E0
2.672803648E1,-1.196367741E-1,-1.221706033E0,-5.045246124E0,5.192435560E0
2.674798647E1,-2.253627777E-1,-1.402809620E0,-5.248502254E0,5.437411068E0
2.676793943E1,-4.044907987E-1,-1.714720249E0,-5.731197834E0,5.995874161E0
2.678788661E1,-6.406195760E-1,-1.361735344E0,-5.070656776E0,5.289260509E0
2.680783672E1,-7.336112261E-1,-8.077698946E-1,-2.670956612E0,2.885253343E0
2.682778639E1,-4.507569075E-1,-7.769355774E-1,-5.922451019E-1,1.075901920E0
2.684773634E1,-3.741530180E-1,-5.010253191E-1,8.104496002E-1,1.023643202E0
2.686768653E1,-4.210578203E-1,2.665451765E-1,2.052242279E0,2.111879351E0
2.688763567E1,-6.867992878E-1,6.570407152E-1,4.138341904E0,4.246088727E0
2.690759994E1,-8.231251836E-1,3.060656786E-1,7.044765472E0,7.099290938E0
2.692753520E1,2.267217636E-2,1.068843603E-1,9.392775536E0,9.393411018E0
2.694750208E1,1.140103340E0,9.475818872E-1,9.254430771E0,9.372418895E0
2.696745337E1,2.033798218E0,1.486090541E0,6.702163696E0,7.159874196E0
2.698740678E1,2.004415512E0,1.560909033E0,4.102718353E0,4.825600112E0
2.700735083E1,1.689526081E0,1.282372236E0,2.630395889E0,3.379047124E0
2.702730261E1,1.464944005E0,7.914028168E-1,2.385089874E0,2.908785496E0
2.704725252E1,1.097469330E0,3.483338356E-1,3.157696724E0,3.361074827E0
2.706720027E1,7.457849979E-1,-4.320573807E-1,3.063255310E0,3.182200801E0
2.708715026E1,6.179547310E-1,-1.161028147E0,1.649673462E0,2.109804953E0
2.710709228E1,6.936626434E-1,-1.530834675E0,-6.490573883E-1,1.801637632E0
2.712704373E1,8.431004882E-1,-1.653301716E0,-3.160629749E0,3.665215602E0
2.714699966E1,8.328232169E-1,-1.677541971E0,-5.207965851E0,5.534496353E0
2.716695104E1,6.373814344E-1,-1.516895056E0,-6.138159752E0,6.354858837E0
2.718690131E1,3.879310191E-1,-1.337578535E0,-5.745004654E0,5.911402988E0
2.720684988E1,3.071339130E-1,-1.200651646E0,-4.920532227E0,5.074202697E0
2.722679922E1,3.132137656E-1,-1.200962901E0,-4.575855255E0,4.741188255E0
2.724674835E1,3.748751283E-1,-1.215407133E0,-4.634962082E0,4.806310369E0
2.726669887E1,6.559516788E-1,-1.153188705E0,-4.990937710E0,5.164259484E0
2.728664874E1,7.123593092E-1,-9.958775043E-1,-5.204369545E0,5.346465201E0
2.730662396E1,5.942217708E-1,-6.254169941E-1,-4.508792877E0,4.590583747E0
2.732654982E1,2.247091532E-1,-2.648136616E-1,-3.544724941E0,3.561698385E0
2.734648378E1,1.566594839E-1,-1.576097012E-1,-2.713691711E0,2.722775370E0
2.736643527E1,1.167705059E-1,-7.150888443E-3,-1.530864716E0,1.535328390E0
2.738639804E1,4.006456137E-1,2.471504211E-1,6.569118500E-1,8.081667013E-1
2.740633277E1,4.094806910E-1,5.667264462E-1,3.203084946E0,3.278506744E0
2.742629961E1,1.630995274E-1,5.418758392E-1,5.459664345E0,5.488912974E0
2.744624870E1,-4.555714130E-2,5.445173979E-1,6.743094444E0,6.765197509E0
2.746619682E1,3.150089979E-1,7.674758434E-1,6.400915146E0,6.454453079E0
2.748614872E1,9.479541779E-1,1.060667872E0,4.878196716E0,5.081381373E0
2.750609790E1,1.555026650E0,1.335335135E0,3.712241173E0,4.240514395E0
2.752604561E1,1.812724113E0,1.408469915E0,3.946327209E0,4.565441343E0
2.754599743E1,1.413215160E0,1.313608050E0,4.945148468E0,5.308223485E0
2.756594730E1,8.452574015E-1,8.766942024E-1,5.909724236E0,6.033895370E0
2.758589530E1,4.711204767E-1,2.404768467E-1,5.585920334E0,5.610908090E0
2.760584700E1,-2.087605000E-2,-2.671096325E-1,3.906231880E0,3.915409412E0
2.762579711E1,-3.043414354E-1,-5.979394913E-1,1.908951759E0,2.023425848E0
2.764572798E1,-3.712221384E-1,-8.297535181E-1,2.618112564E-1,9.459608400E-1
2.766569652E1,-3.176354170E-1,-1.112225652E0,-1.103616714E0,1.598720742E0
2.768564627E1,-2.699891329E-1,-1.542674422E0,-2.229815483E0,2.724851481E0
2.770559606E1,-2.008081675E-1,-1.854130149E0,-3.296432972E0,3.787425625E0
2.772554564E1,6.178319454E-3,-1.992175460E0,-4.236034393E0,4.681109763E0
2.774547712E1,1.363813281E-1,-2.155879498E0,-5.014365196E0,5.459878625E0
2.776541543E1,1.642289162E-1,-2.415654659E0,-5.587703228E0,6.089727903E0
2.778537624E1,2.244486213E-1,-2.664173841E0,-6.105336666E0,6.665083289E0
2.780534503E1,2.757852674E-1,-2.624077320E0,-6.639108658E0,7.144200660E0
2.782529518E1,9.574162960E-2,-2.566865444E0,-7.019708157E0,7.474909182E0
2.784524232E1,8.121889830E-2,-2.416421890E0,-6.394854546E0,6.836655317E0
2.786519443E1,1.440882683E-2,-2.308334351E0,-5.237864971E0,5.723971047E0
2.788514446E1,-3.182513118E-1,-1.983271480E0,-3.464984894E0,4.005093004E0
2.790509193E1,-6.193397641E-1,-1.438649893E0,-9.437427521E-1,1.828645849E0
2.792504363E1,-5.120105743E-1,-9.547841549E-1,1.665837288E0,1.987154116E0
2.794499374E1,-4.771747589E-1,-5.412285328E-1,3.210316658E0,3.290403793E0
2.796492286E1,-1.979950666E-1,-1.919219494E-1,3.980285645E0,3.989825797E0
2.798491134E1,2.361027002E-1,4.315276146E-1,5.120042801E0,5.143617292E0
2.800484290E1,3.636142015E-1,8.624939919E-1,6.550683975E0,6.617217823E0
2.802480518E1,4.397456646E-1,1.186499476E0,7.508758545E0,7.614631452E0
2.804474268E1,2.097545862E-1,1.323492885E0,6.570165634E0,6.705423690E0
2.806469824E1,1.534914970E-1,1.353399515E0,4.863510132E0,5.050641612E0
2.808464241E1,1.526322365E-1,1.431402683E0,3.583391190E0,3.861722758E0
2.810457373E1,3.568060398E-1,1.462595820E0,2.882865906E0,3.252293485E0
2.812452323E1,4.424951077E-1,1.611929059E0,2.551917076E0,3.050638945E0
2.814447285E1,1.022340059E-1,1.240708113E0,1.846786499E0,2.227202008E0
2.816442268E1,-3.621790409E-1,3.093178272E-1,3.782081604E-1,6.081879549E-1
2.818437275E1,-5.530409813E-1,-7.481484413E-1,-1.740971565E0,1.973971228E0
2.820434097E1,-1.861032248E-1,-1.399329901E0,-3.757787228E0,4.014190258E0
2.822428876E1,7.218207121E-1,-1.447043061E0,-5.192627907E0,5.438597553E0
2.824424071E1,1.350203395E0,-9.887292385E-1,-5.427484989E0,5.679632737E0
2.826417145E1,1.523312330E0,-7.792565823E-1,-4.914391518E0,5.203745311E0
2.828412120E1,1.227893114E0,-8.878036737E-1,-4.676217079E0,4.915579623E0
2.830408978E1,7.377871275E-1,-1.086282253E0,-3.670781612E0,3.898586491E0
2.832402138E1,3.925925493E-1,-1.139969587E0,-2.079167366E0,2.403455118E0
2.834397097E1,5.908012390E-4,-1.215808749E0,-1.138445854E0,1.665608065E0
2.836392059E1,-1.847190857E-1,-7.982075214E-1,-5.449295044E-3,8.193205006E-1
2.838387066E1,-9.073200226E-1,-6.268717051E-1,-8.987913132E-1,1.422681828E0
2.840382012E1,-1.171303511E0,-7.933079004E-1,-3.109556198E0,3.416230245E0
2.842376975E1,-4.382729530E-1,-4.994421005E-1,-4.536714554E0,4.585117723E0
2.844371937E1,1.068384647E-1,6.700769663E-1,-3.930905819E0,3.989039754E0
2.846370098E1,-2.501358986E-1,1.141602278E0,-1.974303246E0,2.294274838E0
2.848361915E1,-7.939224243E-1,1.100511074E0,9.251880646E-2,1.360146010E0
2.850360784E1,-1.250610352E0,1.193158627E0,2.614133835E0,3.133903232E0
2.852353773E1,-1.409631968E0,1.275763750E0,5.227342606E0,5.562350775E0
2.854348568E1,-1.085296631E0,8.810713887E-1,6.727869034E0,6.871562945E0
2.856343722E1,-8.013660908E-1,5.802243948E-1,7.259121895E0,7.326233592E0
2.858338713E1,-4.987320900E-1,5.233814120E-1,7.235945702E0,7.271971672E0
2.860330387E1,-4.912471771E-1,5.313559771E-1,6.720373154E0,6.759221722E0
2.862328650E1,-4.081249237E-1,1.951155066E-1,7.040904999E0,7.055421973E0
2.864321732E1,-8.193805218E-1,-7.521015406E-2,7.728378296E0,7.772057134E0
2.866316898E1,-1.493673801E0,-1.698232293E-1,6.943298340E0,7.104174350E0
2.868313618E1,-1.833884597E0,-2.556685805E-1,5.044713974E0,5.373791791E0
2.870308573E1,-1.783958435E0,-7.348322868E-1,2.827883720E0,3.423362751E0
2.872301676E1,-1.502782822E0,-1.159072757E0,7.734117508E-1,2.049383224E0
2.874298404E1,-1.292975426E0,-9.680447578E-1,-3.250350952E-1,1.647587302E0
2.876293529E1,-1.149825454E0,-8.553728461E-1,-1.108046532E0,1.811498936E0
2.878287690E1,-7.586569786E-1,-1.093441248E0,-1.719006062E0,2.173972404E0
2.880282245E1,-2.201669216E-1,-1.309501886E0,-1.675451279E0,2.137850708E0
2.882277224E1,-3.570680618E-1,-1.250413775E0,-1.426247597E0,1.930081454E0
2.884273440E1,-8.176724911E-1,-1.586994529E0,-1.875202179E0,2.589116287E0
2.886268256E1,-1.127789259E0,-2.042989731E0,-2.400127411E0,3.347585285E0
2.888263418E1,-1.358802199E0,-2.106800318E0,-2.613155842E0,3.621261445E0
2.890258368E1,-1.464716077E0,-2.121604681E0,-3.099118710E0,4.031269823E0
2.892253342E1,-1.531343699E0,-2.176148891E0,-3.808426857E0,4.645939372E0
2.894248333E1,-1.537067056E0,-2.405359507E0,-4.475935936E0,5.308703419E0
2.896243312E1,-1.458165288E0,-2.538802624E0,-4.799426556E0,5.621944506E0
2.898238266E1,-1.209782720E0,-2.368647575E0,-4.586243629E0,5.301669189E0
2.900233916E1,-4.555373192E-1,-1.671223521E0,-3.235982418E0,3.670433832E0
2.902226392E1,6.781339645E-3,-1.141072035E0,-2.369507790E0,2.629954095E0
2.904223198E1,1.975333691E-1,-1.140268207E0,-1.184635162E0,1.656077137E0
2.906217676E1,6.106832027E-1,-5.862166882E-1,8.539600372E-1,1.202427430E0
2.908214181E1,1.192861080E0,-3.667833805E-1,2.238200188E0,2.562613448E0
2.910206259E1,1.966799021E0,-6.006050110E-2,2.941208839E0,3.538730717E0
2.912202983E1,2.779851437E0,-2.626943588E-2,3.384748459E0,4.380044089E0
2.914196619E1,3.378044844E0,-5.989596844E-1,3.345829964E0,4.792130822E0
2.916193066E1,3.195931196E0,-4.387395382E-1,2.716486931E0,4.217317849E0
2.918187927E1,2.662125826E0,1.827956438E-1,2.231909752E0,3.478756861E0
2.920181656E1,1.952990294E0,7.027865648E-1,2.834076881E0,3.512843835E0
2.922178010E1,6.680700779E-1,1.138883710E0,4.260654449E0,4.460554906E0
2.924173001E1,-4.612042904E-1,1.058633804E0,4.911039352E0,5.044970015E0
2.926167996E1,-1.331118107E0,7.796741128E-1,4.175994873E0,4.451819888E0
2.928161059E1,-1.509095311E0,4.284663796E-1,2.359556198E0,2.833453290E0
2.930156037E1,-1.025380850E0,2.325629592E-1,-1.661281586E-1,1.064466994E0
2.932151085E1,-4.493620396E-1,6.499075890E-2,-2.588465214E0,2.627984438E0
2.934145986E1,1.636457443E-2,-1.224061251E-1,-4.266728878E0,4.268515711E0
2.936140965E1,-8.290028572E-2,-1.805595160E-1,-4.391228199E0,4.395720566E0
2.938134756E1,2.095680237E-1,-1.915814877E-1,-3.404245377E0,3.416066277E0
2.940130064E1,5.247819424E-1,-9.707343578E-2,-2.554528236E0,2.609680795E0
2.942128953E1,4.873056412E-1,-4.124051332E-1,-2.399350166E0,2.482826213E0
2.944120876E1,1.954905987E-1,-1.019275427E0,-2.746742725E0,2.936279035E0
2.946119500E1,-1.735372543E-1,-1.504716158E0,-2.835141182E0,3.214391298E0
2.948110854E1,-5.383272171E-1,-1.318270683E0,-2.204830647E0,2.624673688E0
2.950109266E1,-1.088240385E0,-1.049775600E0,-1.714893818E0,2.286297608E0
2.952102670E1,-1.705914021E0,-1.063687921E0,-1.562411785E0,2.546115713E0
2.954097653E1,-1.733494759E0,-1.061496735E0,-1.044425964E0,2.285301947E0
2.956092620E1,-1.319150925E0,-6.935042143E-1,-2.614030838E-1,1.513089168E0
2.958087651E1,-6.655936241E-1,1.747750044E-1,8.791179657E-1,1.116427146E0
2.960082581E1,-3.825602531E-1,1.118734360E0,2.337771416E0,2.619750772E0
2.962077544E1,1.518516541E-1,1.254693389E0,3.079691887E0,3.328936248E0
2.964070895E1,5.815148354E-1,8.952572346E-1,2.755465508E0,2.955035564E0
2.966067505E1,9.025940895E-1,8.960437775E-1,2.090810776E0,2.447255655E0
2.968062472E1,1.295404434E0,1.111057162E0,1.589320183E0,2.332050452E0
2.970055676E1,1.589719296E0,1.345089555E0,1.393342018E0,2.505568863E0
2.972050610E1,1.673779011E0,1.723209739E0,1.259634018E0,2.712501768E0
2.974045593E1,1.461213589E0,1.889199615E0,1.740822792E0,2.955449937E0
2.976040673E1,8.706059456E-1,1.716478586E0,2.703186035E0,3.318353235E0
2.978035636E1,-1.904878616E-1,1.375557542E0,3.071563721E0,3.370897190E0
2.980030533E1,-4.949436188E-1,1.142609835E0,3.116800308E0,3.356332907E0
2.982025495E1,-1.268389463E0,4.077975750E-1,2.254120827E0,2.618429185E0
2.984020490E1,-2.917523384E0,-5.540448427E-1,1.297154427E0,3.240604572E0
2.986017361E1,-2.223832130E0,-1.214850545E0,1.084100723E0,2.756186781E0
2.988012258E1,-2.942079306E0,-5.045839548E-1,1.353646278E0,3.277620151E0
2.990007306E1,-2.845571280E0,-8.994024992E-1,1.996897697E0,3.590793948E0
2.992002228E1,-2.155181408E0,-9.771552086E-1,3.587100983E0,4.297316914E0
2.993997276E1,-1.240386248E0,-1.240512967E0,4.973708153E0,5.274012064E0
2.995992185E1,-9.102094173E-1,-1.311740637E0,5.069752693E0,5.315217498E0
2.997987132E1,-1.308162689E0,-2.276011944E0,5.960043907E0,6.512575786E0
2.999982143E1,-8.381681442E-1,-2.493947029E0,3.871022224E0,4.680503251E0
3.001976914E1,-9.188036919E-1,-2.277735233E0,1.804557800E0,3.047737993E0
3.003972064E1,-1.158554554E0,-1.982293010E0,-7.164487839E-1,2.405209573E0
3.005967050E1,-1.111239552E0,-1.716878414E0,-2.711944580E0,3.396640728E0
3.007961846E1,-8.343808651E-1,-1.824728847E0,-2.568041801E0,3.258936251E0
3.009957012E1,-7.968114018E-1,-2.203130722E0,-1.214211941E0,2.638750467E0
3.011951974E1,-1.050800920E0,-2.142554760E0,-1.207955360E0,2.674673742E0
3.013946778E1,7.833425999E-1,-1.916452169E0,-2.722898483E0,3.420612620E0
3.015940056E1,2.747742653E0,-1.557186604E0,-3.421826363E0,4.656588393E0
3.017935450E1,2.940302849E0,-1.208137751E0,-3.313046455E0,4.591432727E0
3.019930798E1,1.872673512E0,-5.689573288E-1,-3.479294300E0,3.992005430E0
3.021926115E1,1.642994404E0,-8.417463303E-2,-3.707318306E0,4.055949334E0
3.023921842E1,5.973602533E-1,-6.060209274E-1,-3.617494106E0,3.716229843E0
3.025914966E1,1.647172868E-1,-1.542959929E0,-3.669872284E0,3.984447227E0
3.027909944E1,4.881356359E-1,-1.916858912E0,-2.936020374E0,3.540175154E0
3.029904878E1,1.466539145E0,-1.253443241E0,2.630701065E-1,1.947065202E0
3.031899861E1,6.180995464E0,7.000939846E-1,9.057621956E0,1.098796396E1
3.033894933E1,5.366902828E0,1.171941519E0,7.780445099E0,9.524306737E0
3.035889892E1,1.074063301E0,-9.393203259E-1,4.785159111E0,4.993363833E0
3.037884911E1,-3.048265278E-1,-5.831480026E-3,6.871213913E-1,7.517240349E-1
3.039879845E1,6.327117682E-1,7.463114262E-1,8.756103516E-1,1.313011201E0
3.041874807E1,1.711291790E0,3.859949112E-1,4.049606323E-1,1.800417945E0
3.043869802E1,1.067959785E0,-1.781909466E-1,-5.808753967E-1,1.228701080E0
3.045864781E1,1.466227770E0,-4.479749203E-1,-1.072997093E0,1.871317227E0
3.047859719E1,1.400369525E0,-7.166965008E-1,-7.833976746E-1,1.757384590E0
3.049854661E1,1.095701814E0,-1.039474964E0,-6.735305786E-1,1.653697102E0
3.051849742E1,7.679178715E-1,-9.715292454E-1,-1.370946407E0,1.847447153E0
3.053845013E1,4.637675881E-1,-1.494355917E0,-2.244594097E0,2.736125480E0
3.055839561E1,-5.419240892E-2,-1.463341475E0,-1.044114113E0,1.798465838E0
3.057835300E1,-6.813815832E-1,-1.437565565E0,-2.279720306E-1,1.607123786E0
3.059829506E1,-4.577243626E-1,-1.218896627E0,-8.054056168E-1,1.530979682E0
3.061824635E1,-6.617921591E-1,-5.702590942E-1,-1.719917297E0,1.929061898E0
3.063819634E1,2.412172854E-1,-5.169081688E-1,-1.835454464E0,1.922049147E0
3.065814495E1,6.877620220E-1,-6.254594326E-1,-1.691373825E0,1.930015937E0
3.067811313E1,-2.823250890E-1,-4.226369858E-1,-1.719414711E0,1.792963030E0
3.069806275E1,-1.358774424E0,-1.541328430E-2,-1.250656128E0,1.846793506E0
3.071801066E1,-1.822827578E0,4.278147221E-1,-1.051877022E0,2.147596583E0
3.073796232E1,-1.380769730E0,2.387621403E-1,-8.618631363E-1,1.645095885E0
3.075791215E1,-2.667471886E0,-1.155571938E-1,-3.297338486E-1,2.690257262E0
3.077786019E1,-2.691911221E0,5.938301086E-1,-7.873344421E-2,2.757756184E0
3.079781193E1,-7.115038037E-1,-3.708367348E-1,-4.554891586E-1,9.226201386E-1
3.081776204E1,3.618299961E-1,-3.624556065E-1,-1.050547600E0,1.168736614E0
3.083771199E1,-6.762481332E-1,2.136814594E-1,1.876287460E-1,7.336046961E-1
3.085764819E1,-3.167778015E0,5.143921375E-1,1.961109161E0,3.761032567E0
3.087759997E1,-3.615909100E0,8.526325226E-1,1.382374763E0,3.963929972E0
3.089756111E1,-1.911458969E0,8.233425617E-1,-1.657499790E0,2.660615327E0
3.091751041E1,-1.192566037E0,7.754054070E-1,-2.548899174E0,2.918964593E0
3.093745995E1,-1.352952838E0,4.313035011E-1,-8.101882935E-1,1.634903411E0
3.095740953E1,-2.304784060E0,2.990360260E-1,1.173356056E0,2.603500824E0
3.097734076E1,-3.939778328E0,5.313582420E-1,8.747425079E-1,4.070549018E0
3.099730907E1,-3.324910402E0,5.393698215E-1,1.555318832E-1,3.371963694E0
3.101725881E1,-1.843535185E0,2.986073494E-1,-1.608982086E-1,1.874480344E0
3.103720689E1,-1.331999421E0,-2.254569530E-1,4.039955139E-1,1.410058747E0
3.105715883E1,-1.539037228E0,-5.377779007E-1,1.196850777E0,2.022447141E0
3.107710825E1,-1.440826297E0,-4.797959328E-1,5.606184006E-1,1.618788913E0
3.109707017E1,-3.294814825E-1,-3.046159744E-1,-1.126744270E0,1.212807318E0
3.111698874E1,2.453920543E-1,-2.799164057E-1,-2.207708836E0,2.238872207E0
3.113692262E1,5.858709216E-1,4.891434908E-1,-3.228582859E0,3.317567387E0
3.115688856E1,-6.699994802E-1,8.662722111E-1,-1.879383564E0,2.175180321E0
3.117685658E1,4.246035814E-1,1.559507608E0,9.693508148E-1,1.884673230E0
3.119680551E1,8.325619102E-1,6.146029234E-1,1.816329002E0,2.090441851E0
3.121675493E1,1.074457169E0,1.158914328E0,2.967216492E0,3.361831991E0
3.123670399E1,8.918494582E-1,6.308434010E-1,3.054839134E0,3.244287439E0
3.125665430E1,2.478464603E0,7.766723633E-3,1.436535835E0,2.864695851E0
3.127660551E1,5.457304001E0,-2.923257351E-1,1.262655258E0,5.609092582E0
3.129655534E1,4.496090412E0,-9.381103516E-1,1.010760307E0,4.702820050E0
3.131650509E1,3.123088837E0,-9.681912661E-1,1.630137444E0,3.653549821E0
3.133645487E1,3.298996449E0,-1.008501291E0,1.397966385E0,3.722198602E0
3.135638643E1,4.384271622E0,-1.864651561E0,6.860694885E-1,4.813465949E0
3.137633601E1,4.341760159E0,-2.631397247E0,1.328690529E0,5.247909228E0
3.139628596E1,4.551533699E0,-2.837465763E0,9.605073929E-1,5.448875611E0
3.141623571E1,5.372182369E0,-3.269141197E0,-3.957805634E-1,6.301132424E0
3.143618533E1,4.902000904E0,-2.886133432E0,9.892272949E-1,5.773902467E0
3.145615359E1,2.983725548E0,-1.765320659E0,3.380925179E0,4.842481826E0
3.147610297E1,3.009488583E0,-2.537709713E0,5.059406281E0,6.410505754E0
3.149605064E1,2.422701836E0,-2.729526997E0,5.508254051E0,6.607621698E0
3.151600271E1,1.507002711E0,-3.039325714E0,5.906578064E0,6.811477255E0
3.153595238E1,1.938401610E-1,-2.040555000E0,4.720251083E0,5.146086766E0
3.155589984E1,-1.426496625E0,-1.647053480E0,2.520701408E0,3.331908369E0
3.157585183E1,-1.264965653E0,-1.608228683E0,-1.866149902E-2,2.046188128E0
3.159580157E1,-6.407341957E-1,-1.867919922E0,-1.632919312E0,2.562438413E0
3.161575136E1,-7.544661760E-1,-1.914931297E0,-1.410376072E0,2.495063476E0
3.163571486E1,-1.746298790E0,-2.030992270E0,-1.000065804E0,2.859129356E0
3.165565069E1,-1.503999591E0,-2.172192097E0,-1.449198246E0,3.013404857E0
3.167558245E1,-6.394023895E-1,-2.508841991E0,-2.292884827E0,3.458387541E0
3.169553143E1,-4.201679230E-1,-3.093737841E0,-2.593202591E0,4.058627180E0
3.171548129E1,-6.058475971E-1,-3.267565966E0,-2.504667282E0,4.161417648E0
3.173545025E1,-7.473940849E-1,-3.320663452E0,-2.728711128E0,4.362484166E0
3.175539991E1,-5.835738182E-1,-3.346679688E0,-3.309525013E0,4.742760709E0
3.177534905E1,-1.707210541E-1,-3.329797983E0,-3.831926823E0,5.079405818E0
3.179529896E1,4.086480141E-1,-3.179397821E0,-4.288333893E0,5.354005163E0
3.181524699E1,3.673436642E-1,-2.976274014E0,-4.830177307E0,5.685398947E0
3.183519832E1,2.829043865E-1,-2.577678204E0,-4.941332817E0,5.580432763E0
3.185514799E1,3.598041534E-1,-2.054910183E0,-4.618407726E0,5.067721857E0
3.187509599E1,2.115199566E-1,-1.229509354E0,-3.828836441E0,4.026961936E0
3.189504781E1,-1.561597586E0,-3.046751022E-3,-2.922489166E0,3.313538777E0
3.191499731E1,-3.512848377E0,1.305162430E0,-1.262235641E0,3.954338314E0
3.193494714E1,-4.343801498E0,2.447310686E0,-5.873775482E-2,4.986119852E0
3.195490055E1,-5.190001488E0,3.075985432E0,9.693765640E-1,6.110441289E0
3.197482799E1,-6.049644470E0,3.612212420E0,1.383193016E0,7.180494391E0
3.199479638E1,-6.498594761E0,4.011945724E0,1.612288475E0,7.805569581E0
3.201474645E1,-6.411276817E0,4.131151676E0,2.328648567E0,7.974552574E0
3.203469558E1,-6.234381199E0,3.837669611E0,3.515902519E0,8.121378424E0
3.205464557E1,-5.757661819E0,3.198777437E0,4.307613373E0,7.870094008E0
3.207459556E1,-4.226017952E0,2.406366110E0,4.235944748E0,6.449267671E0
3.209454474E1,-2.323503971E0,1.599935532E0,3.889510155E0,4.804867704E0
3.211449477E1,-9.431653023E-1,8.324058056E-1,2.833128929E0,3.099851568E0
3.213444261E1,-6.604952812E-1,1.082753539E-1,1.405198097E0,1.556457279E0
3.215439414E1,-7.802028656E-1,-2.255969644E-1,4.926538467E-1,9.499043713E-1
3.217434385E1,-1.088717937E0,-3.624407649E-1,-6.017684937E-3,1.147478221E0
3.219429156E1,-1.340883255E0,-5.664051771E-1,1.635980606E-1,1.464768601E0
3.221424334E1,-1.147352219E0,-8.474299312E-1,4.330778122E-1,1.490674677E0
3.223419305E1,-1.606564522E0,-7.872464657E-1,4.665451050E-1,1.848910732E0
3.225410625E1,-3.448717594E-1,-1.562340379E0,-2.648691654E0,3.094416176E0
3.227407390E1,1.851548910E0,-1.964511275E0,-5.804141998E0,6.401218810E0
3.229404277E1,3.576677799E0,-1.709705114E0,-6.472723007E0,7.590247610E0
3.231399232E1,3.959369421E0,-1.352912903E0,-5.062516212E0,6.567804042E0
3.233394218E1,3.620452881E0,-1.082655668E0,-3.636062145E0,5.244117684E0
3.235389148E1,3.990067005E0,-1.068134546E0,-3.214499474E0,5.233980606E0
3.237384147E1,2.669466019E0,-8.305523396E-1,-1.932314873E0,3.398485954E0
3.239379085E1,7.068353891E-1,-8.122568130E-1,-1.206829071E0,1.617347769E0
3.241374040E1,1.278612375E0,-9.913578629E-1,-2.137194633E0,2.680529970E0
3.243369030E1,3.287816048E0,-1.338858604E0,-3.067765236E0,4.691850410E0
3.245363798E1,3.803184271E0,-1.719340563E0,-1.728013515E0,4.517341395E0
3.247360607E1,1.093546867E0,-1.630689859E0,9.879207611E-1,2.197949408E0
3.249356485E1,-2.671515942E-1,-2.023633718E0,2.265236855E0,3.049223083E0
3.251347070E1,8.280991316E-1,-2.630451679E0,3.028142929E0,4.095689662E0
3.253342077E1,2.993134975E0,-2.836035728E0,4.111887932E0,5.823193110E0
3.255341063E1,3.236770153E0,-3.053725719E0,5.445360184E0,7.032344511E0
3.257331969E1,2.455058098E-1,-3.028407097E0,7.296472549E0,7.903798727E0
3.259328848E1,-2.117340326E0,-2.426733494E0,8.160061836E0,8.772615042E0
3.261323871E1,-2.248211384E0,-1.733202815E0,7.587551117E0,8.101196108E0
3.263318822E1,-8.625776768E-1,-1.935245991E0,5.242984772E0,5.654918798E0
3.265313723E1,7.937481403E-1,-2.046042204E0,2.247036934E0,3.140939317E0
3.267308693E1,1.170059681E0,-1.833298802E0,5.134391785E-1,2.234646269E0
3.269303692E1,2.607517242E-1,-1.205665350E0,-3.055696487E-1,1.270823830E0
3.271298651E1,-5.098223686E-1,-6.766089797E-1,-8.073892593E-1,1.170297387E0
3.273293666E1,-7.309246063E-1,-5.893853903E-1,-1.549171448E0,1.811507133E0
3.275286688E1,-4.386835098E-1,-3.994810581E-1,-2.137434006E0,2.218254374E0
3.277283392E1,-1.896567345E-1,-4.781650305E-1,-2.198211670E0,2.257597400E0
