"Time (s)","Linear Acceleration x (m/s^2)","Linear Acceleration y (m/s^2)","Linear Acceleration z (m/s^2)","Absolute acceleration (m/s^2)"
1.538729610E-1,2.544496536E0,-1.172153473E0,-2.354922771E0,3.659790656E0
1.738161770E-1,2.546861410E0,-1.051637173E0,-2.965294838E0,4.047890471E0
1.937670410E-1,-4.819035530E-3,-3.877930641E-1,-1.020741463E0,1.091933980E0
2.137175410E-1,-2.821072340E-1,-4.904174805E-1,-9.165763855E-3,5.658425645E-1
2.336689550E-1,1.602247715E0,-1.460985661E0,-1.464482307E0,2.616559816E0
2.536186810E-1,2.470824242E0,-1.662852049E0,-3.036064148E0,4.252967773E0
2.735881820E-1,2.360668659E0,-1.047290325E0,-3.619400978E0,4.446305993E0
2.935393530E-1,1.757725716E0,-5.579643250E-1,-2.880655289E0,3.420394534E0
3.134803500E-1,-1.408493638E0,4.773855209E-2,-1.772297859E0,2.264326169E0
3.334405340E-1,-3.644903183E0,1.985936165E-1,4.274101257E-1,3.675246666E0
3.533915620E-1,5.310677528E0,-1.112485886E0,5.330954552E0,7.606575911E0
3.733404330E-1,4.124411583E0,-2.403163910E-2,4.733858109E-1,4.151559051E0
3.932936170E-1,5.856572151E0,-1.517576694E0,1.217352390E1,1.359401194E1
4.132346760E-1,9.654117584E0,-3.449089050E0,2.241503334E1,2.464816263E1
4.331906690E-1,4.684957981E0,-3.274676323E0,1.517517090E1,1.621598434E1
4.531454190E-1,3.135580063E0,-2.195519447E0,7.460058212E0,8.384786014E0
4.730964070E-1,2.230971813E0,-9.483237267E-1,6.058080673E0,6.525097284E0
4.930475160E-1,1.117748857E0,-1.261495590E0,5.214369774E0,5.479998702E0
5.129885750E-1,1.491336346E0,7.884645462E-2,7.534875870E-1,1.672735605E0
5.329482900E-1,-2.342238665E0,2.434463978E0,-7.087878227E0,7.851796902E0
5.528993180E-1,-5.123792648E0,7.678041458E-1,-1.233352757E1,1.337754374E1
5.728493900E-1,-7.211989403E0,-1.667891741E0,-1.431853199E1,1.611877825E1
5.927823110E-1,-8.423807144E0,-4.506701946E0,-1.507059002E1,1.784358632E1
6.127425350E-1,-8.011295319E0,-4.216336727E0,-1.267817497E1,1.557865427E1
6.326820470E-1,-7.574711800E0,-3.390246630E0,-4.756936073E0,9.565483358E0
6.526532980E-1,-7.293277740E0,-5.741646290E-1,-2.128181458E-1,7.318938228E0
6.726042250E-1,-4.789338589E0,1.789021254E0,-2.450329781E0,5.669433587E0
6.925541130E-1,-5.303873062E0,2.632539988E0,-5.693136215E0,8.214203322E0
7.125060570E-1,-4.441895485E0,4.022967815E0,-5.934782982E0,8.434237048E0
7.324521000E-1,-3.439198971E0,3.341891766E0,-3.986842155E0,6.236284191E0
7.523960070E-1,-3.648807764E0,2.841835976E0,-2.237994671E0,5.137942191E0
7.723581640E-1,-1.706615686E0,3.571297169E0,-2.978206635E0,4.953424606E0
7.923090700E-1,2.689599514E0,4.364059448E0,-1.916721344E0,5.472913404E0
8.122598130E-1,5.182453156E0,3.008267164E0,4.245694160E0,7.343937019E0
8.322000990E-1,7.496037006E0,-2.834623814E0,9.493851662E0,1.242412501E1
8.521616660E-1,1.459067154E1,-9.732865334E0,1.725821686E1,2.460614583E1
8.721026630E-1,2.118611336E1,-9.443293571E0,3.013257217E1,3.802629483E1
8.920445160E-1,1.805618286E1,-1.199890614E1,3.001451302E1,3.702526812E1
9.120048210E-1,1.449825478E1,-1.200767231E1,1.991336060E1,2.740302020E1
9.319643740E-1,1.107734013E1,-5.006600380E0,9.212744713E0,1.525280882E1
9.519142010E-1,4.356710911E0,-2.437416315E0,5.363620758E0,7.327370326E0
9.718547710E-1,-6.592278481E-1,6.182676554E-2,2.943807602E0,3.017351007E0
9.918039070E-1,-2.180523396E0,1.990139008E0,-2.678534508E0,3.986211567E0
1.011766980E0,-2.795050144E0,2.642192841E0,-8.648161888E0,9.464892623E0
1.031718944E0,-5.142001629E0,2.427182436E0,-1.225425339E1,1.350918656E1
1.051669096E0,-8.440134048E0,1.338271856E0,-1.105681610E1,1.397426265E1
1.071619494E0,-1.012677765E1,1.255164146E-1,-7.518474102E0,1.261328002E1
1.091564725E0,-1.044552231E1,-7.055801153E-1,-5.616136074E0,1.188056244E1
1.111521490E0,-1.003047466E1,-1.306028366E0,-4.813288212E0,1.120195855E1
1.131463220E0,-9.218113899E0,-4.545575380E-1,-4.633924007E0,1.032731805E1
1.151422203E0,-8.462051392E0,5.367335081E-1,-4.849765778E0,9.768040986E0
1.171363282E0,-8.076505661E0,4.533346891E-1,-5.370316029E0,9.709570036E0
1.191324889E0,-7.683870316E0,2.392699718E-1,-4.722460747E0,9.022236344E0
1.211274758E0,-7.299266815E0,3.440190554E-1,-3.826852798E0,8.248784607E0
1.231226539E0,-7.195939064E0,5.560698509E-1,-3.842167616E0,8.176368673E0
1.251177241E0,-6.135474205E0,8.550099134E-1,-3.975981474E0,7.360945208E0
1.271124831E0,-4.846784592E0,1.257729650E0,-4.614912033E0,6.809597479E0
1.291078219E0,-4.901023865E0,1.071562290E0,-5.713987350E0,7.603810368E0
1.311029511E0,-4.678329468E0,1.177667856E0,-5.862697124E0,7.592422918E0
1.330979257E0,-3.702468157E0,1.321563244E0,-6.131781578E0,7.283786459E0
1.350930998E0,-1.768068314E0,1.009318590E0,-7.359969616E0,7.636356613E0
1.370887132E0,-4.603700638E-1,-1.580893993E-2,-6.064696789E0,6.082165540E0
1.390823247E0,2.035447598E0,-1.059652567E0,1.389002800E-1,2.298957105E0
1.410774397E0,8.409965515E0,-1.461995721E0,5.499927521E0,1.015451398E1
1.430725079E0,1.566047287E1,-4.060286522E0,1.043924904E1,1.925394135E1
1.450675069E0,2.074941063E1,-4.524909973E0,2.187356567E1,3.048714035E1
1.470635008E0,2.208040619E1,-6.682666302E0,2.655103302E1,3.517328135E1
1.490586708E0,1.826641464E1,-5.754334927E0,1.866735458E1,2.674405357E1
1.510537370E0,1.571604538E1,-1.287372112E0,1.566985607E1,2.223051503E1
1.530486770E0,1.214185524E1,1.479428053E0,1.276669884E1,1.768055302E1
1.550429233E0,8.646130562E0,3.806763411E0,8.908893585E0,1.298519951E1
1.570382641E0,5.271606445E0,3.838234901E0,4.553428650E0,7.953338553E0
1.590339610E0,1.505417824E-1,2.773499250E0,-1.453388691E0,3.134852406E0
1.610291390E0,-6.245798111E0,1.651299715E0,-7.132474899E0,9.623356118E0
1.630227587E0,-9.902692795E0,-4.645979404E-1,-1.066106510E1,1.455807284E1
1.650180161E0,-1.131477451E1,-1.315203667E0,-1.194817448E1,1.650796039E1
1.670143416E0,-1.004411507E1,-1.095372915E0,-1.209591484E1,1.576055980E1
1.690094546E0,-8.016126633E0,-9.915359020E-1,-1.070075607E1,1.340699855E1
1.710040386E0,-6.794577599E0,-1.423555851E0,-8.577290535E0,1.103461413E1
1.729978678E0,-7.871449471E0,-2.669480801E0,-8.832431793E0,1.212838389E1
1.749935911E0,-9.961042404E0,-3.547789097E0,-1.023380852E1,1.471529850E1
1.769897579E0,-1.073909187E1,-3.785886765E0,-1.117454624E1,1.595404389E1
1.789839147E0,-8.248123169E0,-2.875682354E0,-1.057595539E1,1.371684793E1
1.809789626E0,-4.506777763E0,-8.173269033E-1,-9.341085434E0,1.040360256E1
1.829734103E0,-2.190227032E0,8.485006094E-1,-7.291101456E0,7.660104971E0
1.849691397E0,-1.934507847E0,1.414225221E0,-6.538802624E0,6.964071606E0
1.869651214E0,-1.711559296E0,1.336049676E0,-6.399827957E0,6.758125616E0
1.889602404E0,1.612419128E0,2.413059711E0,-5.465853214E0,6.188562351E0
1.909534227E0,6.034706593E0,4.322544575E0,2.188129425E-1,7.426301527E0
1.929500798E0,8.142190933E0,2.006333828E0,1.366898918E1,1.603626870E1
1.949454247E0,1.053606987E1,-3.647268414E-1,2.521562958E1,2.733074768E1
1.969404380E0,1.274614143E1,-5.359148979E-1,3.204608917E1,3.449207384E1
1.989355713E0,8.040558815E0,-2.847932339E0,2.612466812E1,2.748198663E1
2.009306476E0,3.829889059E0,-4.891769886E-1,1.480142879E1,1.529671987E1
2.029256182E0,3.834555387E0,3.036516666E0,8.804507256E0,1.007192119E1
2.049199336E0,2.810627699E0,3.738119125E0,4.512187958E0,6.498692393E0
2.069159052E0,2.372775078E0,3.513061047E0,2.789794922E0,5.074900511E0
2.089109693E0,9.370923042E-2,1.500755787E0,-3.163204193E-1,1.536589717E0
2.109068900E0,-4.314895630E0,4.279538393E-1,-5.801423073E0,7.242788031E0
2.129002065E0,-6.876410484E0,-1.646465182E0,-6.404292107E0,9.539959441E0
2.148959705E0,-7.880348682E0,-2.693645000E0,-5.689129829E0,1.008572342E1
2.168911954E0,-6.826302528E0,-2.721036911E0,-6.173847198E0,9.597855870E0
2.188854091E0,-3.774235725E0,-1.218933582E0,-7.524085999E0,8.505440876E0
2.208804671E0,-2.022456169E0,-3.826256990E-1,-9.159196854E0,9.387631138E0
2.228764386E0,-1.242969275E0,-3.255982399E-1,-9.734085083E0,9.818523272E0
2.248355409E0,-1.633843422E0,-8.551584482E-1,-9.266970634E0,9.448676364E0
2.273635599E0,-2.490869761E0,-1.477669120E0,-9.568576813E0,9.997279651E0
2.293585752E0,-1.958170056E0,-1.214529157E0,-9.714925766E0,9.984452598E0
2.313536963E0,-4.521943331E-1,-3.039848804E-1,-9.133157730E0,9.149396518E0
2.333499893E0,7.817665339E-1,-2.906990051E-1,-7.495967865E0,7.542227725E0
2.353438287E0,-1.789746284E-1,-1.067305326E0,-5.508975983E0,5.614266555E0
2.373389864E0,-2.377156019E-1,-1.369676948E0,-3.802904606E0,4.049025449E0
2.393353201E0,2.485158443E0,-4.496376514E-1,1.083003998E0,2.747923610E0
2.413309457E0,5.474714279E0,6.281492710E-1,9.290404320E0,1.080179061E1
2.433261035E0,4.375946045E0,1.169986963E0,1.241803265E1,1.321837010E1
2.453199754E0,1.997162580E0,2.266851425E0,1.069009399E1,1.110879757E1
2.473161911E0,-2.266623020E0,2.845268488E0,1.456309605E1,1.501055959E1
2.493093590E0,-1.482670426E0,2.236544847E0,1.693367195E1,1.714496107E1
2.513063193E0,2.046664000E0,3.010255575E0,1.663458252E1,1.702820624E1
2.533012777E0,2.972607136E0,2.312360764E0,1.369279003E1,1.420126418E1
2.552953124E0,2.141330242E0,1.649652004E0,7.445378304E0,7.920877794E0
2.572915809E0,1.927285671E0,2.099412203E0,-1.313740730E0,3.138132623E0
2.592866776E0,7.031084895E-1,1.733652353E0,-6.744826317E0,6.999470985E0
2.612815139E0,-1.992665768E0,-1.760072351E0,-4.625283241E0,5.334961725E0
2.632767978E0,-3.629134893E0,-3.824726105E0,-2.256447315E0,5.735041790E0
2.652714265E0,-1.811207294E0,-3.704695225E0,-3.188751698E0,5.212808836E0
2.672667551E0,1.387782097E-1,-2.748696089E0,-5.480726242E0,6.132939729E0
2.692602080E0,-4.255151749E-1,-1.889660239E0,-9.357483864E0,9.555855966E0
2.712552070E0,-1.770578027E0,-1.904129744E0,-1.008160019E1,1.041149936E1
2.732503851E0,-2.331062317E0,-2.813953876E0,-6.396522045E0,7.366660181E0
2.752453841E0,-2.876455307E0,-3.044556856E0,-3.278852463E0,5.319228803E0
2.772405133E0,-8.972652555E-1,-2.174774408E0,-2.091817856E0,3.148083641E0
2.792355978E0,2.730033994E-1,-1.147575855E0,-3.784059525E0,3.963655848E0
2.812305440E0,-1.093551219E-1,-1.110914588E0,-6.625375748E0,6.718756847E0
2.832256610E0,-5.947657824E-1,-1.267854571E0,-8.531655312E0,8.645828121E0
2.852207699E0,-4.935331941E-1,-1.555021763E0,-8.153752327E0,8.315367984E0
2.872176976E0,2.189848423E-1,-1.823605895E0,-5.764018536E0,6.049578704E0
2.892128391E0,4.986727238E-2,-1.428141356E0,-3.785361290E0,4.046113514E0
2.912078341E0,1.924025059E0,-2.873191833E-1,-1.771492958E0,2.631085715E0
2.932026988E0,4.087080002E0,7.827534676E-1,4.069328308E0,5.820340094E0
2.951979990E0,4.038400650E0,1.887624741E0,7.288265228E0,8.543454630E0
2.971930794E0,2.206027508E0,5.324668884E0,1.024130344E1,1.175172125E1
2.991879686E0,8.372233510E-1,6.572379589E0,1.729458809E1,1.852025630E1
3.011832117E0,-8.892866373E-1,3.613121033E0,2.225765419E1,2.256653816E1
3.031782840E0,-2.185643196E0,3.711101055E0,1.841076469E1,1.890781753E1
3.051714805E0,3.275821805E-1,5.236526012E0,1.110348320E1,1.228071064E1
3.071684774E0,2.871955395E0,5.993170261E0,3.763643265E0,7.637488343E0
3.091634886E0,5.196613789E0,3.546240330E0,4.698973656E0,7.852449857E0
3.111567137E0,8.640908003E-1,1.333125591E0,-2.929630280E-1,1.615457857E0
3.131536903E0,-1.886688113E0,-1.863778591E0,-2.681221485E0,3.771234722E0
3.151487747E0,-5.058211088E-1,-2.284524918E0,-5.850566387E0,6.301113881E0
3.171438307E0,4.796044528E-1,-2.256696224E0,-7.267028809E0,7.624461029E0
3.191389478E0,7.020336390E-1,-2.354261875E0,-6.429026604E0,6.882425683E0
3.211333934E0,1.659044504E0,-1.670770645E0,-5.756308079E0,6.219243195E0
3.231290435E0,1.147556305E0,-1.713760138E0,-7.472527027E0,7.751936497E0
3.251239652E0,8.463565707E-1,-1.932659864E0,-9.571975708E0,9.801745383E0
3.271192084E0,-1.345247984E0,-3.455395460E0,-8.739151001E0,9.493271835E0
3.291142848E0,-1.647765398E0,-3.989338875E0,-8.226330757E0,9.289912443E0
3.311092065E0,-2.280441523E-1,-3.892112970E0,-7.523087025E0,8.473333812E0
3.331044537E0,4.487999082E-1,-3.758883476E0,-7.183104515E0,8.119582306E0
3.350995423E0,6.668847799E-1,-3.669278860E0,-6.875834465E0,7.822112391E0
3.370945210E0,5.632516742E-2,-3.376931667E0,-6.646680355E0,7.455548253E0
3.390878029E0,-2.010105550E-1,-3.175993443E0,-6.499927521E0,7.237153955E0
3.410828426E0,3.319023848E-1,-2.615668774E0,-6.343118668E0,6.869282114E0
3.430779719E0,1.297942877E0,-1.850987196E0,-2.925460815E0,3.697178694E0
3.450749281E0,5.752812028E-1,4.536800385E-1,2.191515923E0,2.310739293E0
3.470681042E0,2.897719741E-1,3.987183094E0,5.772969246E0,7.022020417E0
3.490650157E0,2.315898180E0,6.827291965E0,9.677627563E0,1.206779910E1
3.510594166E0,7.097225189E0,7.960937977E0,1.823141098E1,2.112182485E1
3.530532600E0,8.986109734E0,6.856049538E0,2.469863510E1,2.716207207E1
3.550484462E0,5.888720989E0,5.420623302E0,1.977777100E1,2.133589505E1
3.570434290E0,2.117612839E0,5.690703392E0,1.199856091E1,1.344744783E1
3.590386437E0,-6.431702375E-1,6.257359505E0,6.888185501E0,9.328200010E0
3.610336264E0,-2.005501986E0,5.524344444E0,4.386741638E0,7.333752242E0
3.630286946E0,-1.000311226E-1,2.727713108E0,3.946085930E0,4.798126634E0
3.650239175E0,1.091100693E0,3.995795250E-1,6.479816437E-1,1.330430280E0
3.670202308E0,-7.916347980E-1,-2.564805984E0,-4.305465221E0,5.073652152E0
3.690137039E0,-2.933362246E0,-4.132660866E0,-8.224374771E0,9.660426506E0
3.710079339E0,-2.384942532E0,-4.310926914E0,-9.714987755E0,1.089279711E1
3.730040642E0,-5.318196416E-1,-3.482173920E0,-9.514296532E0,1.014545247E1
3.749990591E0,2.063678205E-1,-3.145566225E0,-8.023327827E0,8.620380733E0
3.769941965E0,3.054006994E-1,-3.103122473E0,-7.200541496E0,7.846683153E0
3.789892851E0,-3.817844391E-2,-3.368161678E0,-7.414317131E0,8.143590683E0
3.809843940E0,-1.105699420E0,-4.061488628E0,-8.787878990E0,9.743976510E0
3.829794255E0,-1.299800873E0,-4.235498905E0,-9.092031479E0,1.011404814E1
3.849745914E0,-5.847348571E-1,-4.061463833E0,-7.235616207E0,8.318145539E0
3.869686017E0,7.473070025E-1,-3.379877567E0,-5.130415440E0,6.188958128E0
3.889647360E0,1.345106363E0,-2.597868443E0,-4.745000362E0,5.574339424E0
3.909597150E0,1.034567595E0,-2.182785273E0,-5.399754047E0,5.915422675E0
3.929547706E0,8.571138382E-1,-2.312250376E0,-6.758211136E0,7.194064476E0
3.949510229E0,1.552659988E0,-2.296909332E0,-7.272266388E0,7.782827503E0
3.969468276E0,4.785794914E-1,-1.525012016E0,-3.914598465E0,4.228330772E0
3.989409335E0,-1.555594325E0,1.109299660E-1,1.849447250E0,2.419221836E0
4.009359834E0,-1.874998927E0,3.015129566E0,6.595745087E0,7.490692927E0
4.029324188E0,-1.509791851E0,5.112784863E0,1.174356461E1,1.289695120E1
4.049271045E0,-2.127754450E0,4.224152088E0,2.197513199E1,2.247837240E1
4.069222114E0,3.197325945E0,5.495622158E0,2.489931107E1,2.569825768E1
4.089163580E0,5.378593922E0,6.119775295E0,1.718431473E1,1.901792825E1
4.109121403E0,3.971593618E0,6.813426971E0,1.080387020E1,1.337609638E1
4.129074099E0,2.346547604E0,6.762635708E0,7.030662537E0,1.003343127E1
4.149024191E0,1.848590851E0,4.663567543E0,4.624064445E0,6.822618439E0
4.168975647E0,-1.996496022E-1,1.939449310E0,2.062644958E0,2.838279024E0
4.188909259E0,-2.076251507E0,-4.918026924E-1,-8.261327744E-1,2.288052790E0
4.208869808E0,-1.191829681E0,-2.121719599E0,-5.551660538E0,6.061607606E0
4.228827672E0,5.862622857E-1,-2.563083649E0,-9.928137779E0,1.027039537E1
4.248778639E0,1.229299426E0,-2.884508610E0,-1.078599072E1,1.123250474E1
4.268718681E0,-2.493796498E-1,-4.087686539E0,-8.351216316E0,9.301300200E0
4.288670523E0,-1.442624569E0,-2.595754623E0,-8.069843292E0,8.598923100E0
4.308622914E0,-6.454513073E-1,-3.201860189E0,-1.044916630E1,1.094776655E1
4.328581449E0,-1.428746223E0,-4.308994293E0,-1.110326099E1,1.199546382E1
4.348521938E0,1.363543272E0,-8.113245010E0,-2.036522865E0,8.475341895E0
4.368482793E0,4.118100166E0,-1.610333681E0,-1.783978462E0,4.768071172E0
4.388415978E0,3.724913597E0,-1.223265409E0,-6.274532795E0,7.398724306E0
4.408376080E0,-2.877115011E0,-1.455837488E0,-5.722616196E0,6.568530254E0
4.428316427E0,2.082578897E0,-2.798677921E0,-5.434135437E0,6.457519719E0
4.448276325E0,3.191883564E0,-2.420304298E0,-2.420806885E0,4.680416601E0
4.468235532E0,-1.769891739E0,-2.669215679E0,-2.674208641E0,4.172363954E0
4.488181657E0,-6.088750362E-1,-2.444701910E0,-1.087441921E0,2.744052873E0
4.508137975E0,5.030343533E-1,5.109395981E-1,2.081079483E0,2.201134855E0
4.528088168E0,3.075780869E-1,2.055507183E0,3.416635513E0,3.999138944E0
4.548039623E0,7.826563716E-1,4.442783833E0,1.470433140E1,1.538077505E1
4.567976552E0,-3.979728222E-1,5.340803146E0,1.673324203E1,1.756940379E1
4.587939624E0,-2.520064592E0,4.751961231E0,8.790746689E0,1.030577937E1
4.607882657E0,-1.499309540E0,5.981733322E0,8.026442528E0,1.012189914E1
4.627823695E0,3.031647205E-1,3.952354908E0,9.921966553E0,1.068449524E1
4.647782454E0,-4.398107529E-1,1.927496433E0,7.868047714E0,8.112635258E0
4.667733666E0,-4.430782318E0,1.857412815E0,2.320354462E0,5.335340584E0
4.687685243E0,-5.110895634E0,6.831965446E-1,3.921936035E0,6.478394397E0
4.707645568E0,-1.837613583E0,6.509876251E-1,2.914578438E0,3.506476299E0
4.727585976E0,-7.178510427E-1,-7.908251286E-1,-1.057552338E0,1.503040735E0
4.747539099E0,-3.826801777E-1,-9.914538860E-1,-4.331295013E0,4.459769212E0
4.767494807E0,-1.025155783E0,-1.793246984E0,-6.955976009E0,7.256189177E0
4.787446486E0,-2.009153843E0,-2.708775520E0,-9.023188591E0,9.632865427E0
4.807399162E0,7.905840874E-2,-3.434456348E0,-9.715867996E0,1.030533025E1
4.827331025E0,2.643584728E0,-3.274140835E0,-9.885996819E0,1.074436929E1
4.847283314E0,3.562604427E0,-3.484230280E0,-9.994166374E0,1.116760370E1
4.867249601E0,2.877017021E0,-3.910541534E0,-9.608701706E0,1.076553345E1
4.887201972E0,-2.208342552E-1,-3.105895996E0,-9.017932892E0,9.540360127E0
4.907152776E0,-2.156443357E0,-2.079698324E0,-9.061962128E0,9.544346530E0
4.927103600E0,-1.588225365E-1,-2.100304604E0,-6.767145634E0,7.087366510E0
4.947045127E0,8.543262482E-1,-1.401923180E0,-2.748040199E0,3.201091513E0
4.966990499E0,-1.268701553E0,-1.271542549E0,2.095441818E0,2.759945742E0
4.986953693E0,-4.195660591E0,-1.258595705E0,5.517743111E0,7.045077713E0
5.006891741E0,-3.817136288E0,-1.395493746E0,4.505160332E0,6.067487276E0
5.026857275E0,-2.718913555E-1,-1.422744751E0,3.456564903E0,3.747795147E0
5.046797439E0,8.259550333E-1,-7.521748543E-1,7.074413300E0,7.162073182E0
5.066758334E0,-7.102630138E-1,5.679149628E-1,1.426247406E1,1.429143685E1
5.086709525E0,-1.116732597E0,1.127974033E0,1.964334869E1,1.970737337E1
5.106658132E0,1.755095005E0,1.658852577E0,1.867687225E1,1.883235799E1
5.126610442E0,3.714571953E0,2.070117474E0,1.602877808E1,1.658327946E1
5.146556933E0,5.513923645E0,1.738896370E0,1.142388630E1,1.280360468E1
5.166519904E0,3.992801905E0,5.903530121E-2,6.853365898E0,7.931870924E0
5.186463323E0,2.309703350E0,-5.885453224E-1,1.254558563E0,2.693516725E0
5.206413923E0,7.305383682E-3,-2.214535236E0,-4.131675243E0,4.687745727E0
5.226347521E0,7.988591194E-1,-2.962303400E0,-5.674128532E0,6.450515633E0
5.246315186E0,3.567345142E0,-3.759756565E0,-5.745967388E0,7.738078703E0
5.266265746E0,4.395816803E0,-4.428756237E0,-4.549344063E0,7.722280659E0
5.286192991E0,4.126277924E0,-4.497759819E0,-5.076434612E0,7.938904286E0
5.306165727E0,3.560356140E0,-4.386919498E0,-7.160072803E0,9.120736872E0
5.326118403E0,3.959525585E0,-3.800911665E0,-8.744266510E0,1.032409653E1
5.346069166E0,4.619492531E0,-3.922668457E0,-8.813175201E0,1.069575132E1
5.366017651E0,5.959743023E0,-3.750321865E0,-7.838218689E0,1.053665617E1
5.385946483E0,5.441176414E0,-3.372136116E0,-5.132083893E0,8.204632097E0
5.405902699E0,5.569828987E0,-2.885540962E0,-4.181940079E0,7.539095729E0
5.425869779E0,6.327452660E0,-1.924044371E0,-5.390741348E0,8.532215198E0
5.445822699E0,6.770750999E0,-9.351015091E-1,-6.873150826E0,9.693177302E0
5.465773015E0,6.047602177E0,-1.854746342E-1,-6.789727211E0,9.094409740E0
5.485730818E0,3.875695229E0,6.120867729E-1,-4.350785255E0,5.858753798E0
5.505674664E0,1.088010550E0,1.963378668E0,-8.735399246E-1,2.408670743E0
5.525625671E0,-1.543354988E0,2.976802349E0,1.545976639E0,3.692335387E0
5.545576272E0,-3.748824835E0,4.215662956E0,5.993904114E0,8.231183896E0
5.565526669E0,-6.499603271E0,5.765803337E0,9.647262573E0,1.298302761E1
5.585458675E0,-6.323328495E0,7.817603588E0,1.607406235E1,1.895982303E1
5.605428115E0,-5.929930687E0,7.185996056E0,2.765004921E1,2.917752283E1
5.625377902E0,-7.059668541E0,5.365176201E0,3.362641144E1,3.477584768E1
5.645310762E0,-8.705034256E0,4.649491310E0,3.343756866E1,3.486353954E1
5.665280202E0,-7.698562622E0,3.281600475E0,2.531477737E1,2.666223400E1
5.685229745E0,-3.774800539E0,3.503681183E0,1.400765228E1,1.492445052E1
5.705181892E0,-7.473344803E-1,2.818951130E0,6.220788956E0,6.870459193E0
5.725115240E0,1.874726295E0,1.912985325E0,-3.354629040E0,4.292743590E0
5.745074060E0,7.488741875E-1,-1.245085239E0,-1.005066013E1,1.015513756E1
5.765034141E0,-6.533288956E-2,-4.941674232E0,-1.036993504E1,1.148738287E1
5.784985129E0,1.782298088E-1,-5.782656193E0,-8.338721275E0,1.014914533E1
5.804934874E0,2.632394791E0,-4.619568825E0,-5.980263233E0,8.002091402E0
5.824877093E0,5.708577156E0,-4.152210712E0,-4.833021641E0,8.554928704E0
5.844828080E0,7.852114677E0,-4.703212261E0,-6.850177288E0,1.143244678E1
5.864778783E0,9.909944534E0,-5.690711975E0,-9.695247650E0,1.498629475E1
5.884729933E0,1.088639069E1,-6.754538059E0,-1.207205677E1,1.760317702E1
5.904679658E0,7.957229614E0,-6.714273453E0,-1.212202644E1,1.597943980E1
5.924644664E0,3.827236652E0,-5.698441505E0,-9.502822876E0,1.172278203E1
5.944572112E0,2.365546465E0,-4.879823208E0,-6.122270107E0,8.178672012E0
5.964535102E0,3.869358540E0,-4.078828335E0,-3.274378777E0,6.506176486E0
5.984482753E0,5.365374088E0,-3.739179611E0,-2.768227577E0,7.101534144E0
6.004441166E0,5.492189407E0,-3.692262888E0,-3.775961876E0,7.619372534E0
6.024393985E0,5.161004543E0,-3.543028593E0,-5.607729435E0,8.404501706E0
6.044211493E0,5.309987068E0,-3.243805885E0,-6.637379169E0,9.097969088E0
6.064298625E0,5.370298862E0,-2.887019873E0,-6.485774517E0,8.901700102E0
6.084236021E0,5.848667622E0,-2.600816727E0,-6.553462505E0,9.160733126E0
6.104196591E0,5.282930374E0,-2.155811310E0,-6.670380592E0,8.777861527E0
6.124147599E0,4.650416374E0,-1.733377218E0,-6.896402359E0,8.496548389E0
6.144098281E0,4.439680099E0,-1.094662428E0,-7.215780258E0,8.542630154E0
6.164041741E0,3.106600285E0,1.762747765E-2,-5.660776138E0,6.457217864E0
6.184007763E0,1.409499168E0,1.513928175E0,-2.755968094E0,3.445870943E0
6.203950408E0,-7.356748581E-1,2.394619465E0,2.698521614E-1,2.519571405E0
6.223901294E0,-2.888132095E0,2.623491287E0,3.403979301E0,5.177942508E0
6.243851854E0,-4.406181812E0,3.782726765E0,9.052032471E0,1.075466186E1
6.263800766E0,-5.902043343E0,6.871958256E0,1.431465816E1,1.694011111E1
6.283762740E0,-1.283101654E1,7.606499672E0,2.069971085E1,2.551415003E1
6.303704348E0,-1.391375637E1,5.939794064E0,2.619190788E1,3.024714546E1
6.323644613E0,-1.058632278E1,3.005840302E0,2.604022217E1,2.827009863E1
6.343596048E0,-6.912733078E0,1.139950752E0,2.221763420E1,2.329610774E1
6.363537880E0,-6.191452026E0,7.015490532E-1,1.923128510E1,2.021555282E1
6.383487972E0,-6.634076118E0,3.670525551E-1,1.448253059E1,1.593390680E1
6.403439163E0,-6.255902767E0,5.690727234E-1,7.324040890E0,9.648924197E0
6.423390048E0,-3.735748291E0,3.673462868E-1,-2.426338196E-2,3.753844336E0
6.443348014E0,-2.316598892E-1,-3.293125629E-1,-5.250182629E0,5.265598798E0
6.463310333E0,1.341488838E0,-1.665283680E0,-8.132404327E0,8.408850229E0
6.483241708E0,1.524631977E0,-2.451120138E0,-7.920456409E0,8.430072499E0
6.503192960E0,1.006556988E0,-2.149651527E0,-6.701846600E0,7.109775419E0
6.523143317E0,3.011241198E0,-1.018629074E0,-6.009914398E0,6.798841799E0
6.543094100E0,5.479085445E0,-8.654007912E-1,-6.026176929E0,8.190488644E0
6.563057234E0,6.926702023E0,-7.711189985E-1,-6.089290142E0,9.254905718E0
6.583002321E0,6.478444099E0,-2.804691792E-1,-4.511889458E0,7.899749831E0
6.602964843E0,5.392250061E0,3.552844524E-1,-2.608528614E0,6.000584079E0
6.622905088E0,3.945262432E0,6.972019672E-1,-1.922833443E0,4.443925595E0
6.642864234E0,4.508045673E0,5.628839731E-1,-2.779542446E0,5.325896203E0
6.662799434E0,5.476209164E0,1.148941517E-1,-3.547638178E0,6.525933199E0
6.682767104E0,5.774195194E0,-4.831547737E-1,-4.522576332E0,7.350405795E0
6.702717013E0,5.821710587E0,-9.502674341E-1,-5.231303692E0,7.884279337E0
6.722669465E0,5.513335228E0,-1.336297750E0,-5.729312420E0,8.062727691E0
6.742610809E0,4.913455009E0,-1.458886147E0,-6.119015694E0,7.982026182E0
6.762561247E0,4.334219456E0,-1.696211338E0,-6.672125340E0,8.135099738E0
6.782523302E0,3.928625822E0,-2.091538429E0,-6.859085083E0,8.176532396E0
6.802472255E0,3.704931736E0,-1.986964107E0,-6.308757782E0,7.581224854E0
6.822413740E0,2.426577568E0,-1.503156543E0,-5.370119095E0,6.081606480E0
6.842367698E0,1.490444899E0,-9.195480347E-1,-4.710372448E0,5.025395823E0
6.862315186E0,1.553118229E-1,-1.111521721E-1,-3.698535442E0,3.703463377E0
6.882265563E0,-2.378701925E0,3.678612709E-1,-2.385478973E0,3.388813169E0
6.902216388E0,-1.576979518E0,2.299025059E0,1.258786201E0,3.058908845E0
6.922167029E0,-1.188740492E0,5.266695023E0,1.026073742E1,1.159456393E1
6.942118260E0,-1.510919094E0,4.659335136E0,2.364034653E1,2.414245771E1
6.962052768E0,-2.017257214E0,2.109356403E0,3.023588181E1,3.037642605E1
6.982024955E0,-1.492434621E0,2.554119587E0,3.139437103E1,3.153343338E1
7.001970124E0,-1.394369364E0,1.436299801E0,2.682190323E1,2.689650007E1
7.021932443E0,-3.608324766E0,2.694631100E0,1.624810982E1,1.686066775E1
7.041873217E0,-5.377391815E0,2.991174698E0,7.595451832E0,9.775190910E0
7.061831753E0,-4.314411163E0,1.406671047E0,2.308568001E0,5.091399939E0
7.081778162E0,-1.937363386E0,-6.025276184E-1,-8.311948776E-1,2.192555893E0
7.101732344E0,1.755992621E-1,-2.111873627E0,-2.480431080E0,3.262419908E0
7.121674236E0,1.625011683E0,-3.051644325E0,-4.614673615E0,5.766143306E0
7.141619344E0,1.541566253E0,-4.332061768E0,-5.762884140E0,7.372517839E0
7.161586507E0,7.072615027E-1,-5.120847702E0,-5.606698513E0,7.626163402E0
7.181526691E0,5.510444641E-1,-5.711592674E0,-6.231251717E0,8.470799185E0
7.201463375E0,1.073021293E0,-5.767241478E0,-7.566135883E0,9.573863440E0
7.221420608E0,2.718728065E0,-5.894939423E0,-1.025890255E1,1.214029961E1
7.241370335E0,4.410511017E0,-5.787506104E0,-1.295421028E1,1.485797423E1
7.261320467E0,4.644380569E0,-5.584693909E0,-1.367378235E1,1.548326195E1
7.281271088E0,2.340259314E0,-5.632519722E0,-1.070305920E1,1.231899218E1
7.301221587E0,-2.259877920E-1,-5.573864460E0,-6.620048523E0,8.657024775E0
7.321173286E0,-2.075495481E0,-4.990025997E0,-2.517534733E0,5.962048480E0
7.341123582E0,-8.466930389E-1,-4.035820961E0,-1.047436237E0,4.254628374E0
7.361074305E0,4.869516492E-1,-4.144464016E0,-1.869011402E0,4.572407190E0
7.381025272E0,3.830121756E-1,-4.258480549E0,-1.085765839E0,4.411376471E0
7.400982383E0,-6.879991293E-1,-3.981323957E0,-8.457078934E-1,4.127893542E0
7.420926046E0,-2.117172718E0,-2.680585861E0,-6.245102882E-1,3.472459356E0
7.440877176E0,-1.075486660E0,-1.625908852E0,8.642468452E-1,2.132410317E0
7.460827613E0,1.517074108E0,1.134028435E-1,3.749969006E0,4.046806345E0
7.480778112E0,5.042055130E0,5.549584389E0,3.927223206E0,8.464235874E0
7.500730361E0,2.488660812E0,1.155347824E1,6.701631069E0,1.358632221E1
7.520679965E0,-1.041077614E0,1.133242226E1,1.458145332E1,1.849665964E1
7.540630830E0,-2.711857557E0,7.040765762E0,2.241351509E1,2.364935967E1
7.560579213E0,7.754852176E-1,4.897211075E0,2.031742859E1,2.091367873E1
7.580531869E0,3.505853176E0,4.340309143E0,1.350912952E1,1.461594576E1
7.600482612E0,2.538382292E0,2.677113533E0,8.476980209E0,9.244972417E0
7.620433314E0,2.273317337E0,8.236312866E-2,1.954091549E0,2.998871318E0
7.640405644E0,2.121785879E0,-1.666045666E0,-4.430418491E0,5.187127479E0
7.660335411E0,1.213887811E0,-3.157906771E0,-8.532711029E0,9.178946361E0
7.680287434E0,2.132843435E-1,-4.264924049E0,-8.518313408E0,9.528731850E0
7.700252461E0,-1.015995741E0,-4.519736290E0,-6.106092453E0,7.664504454E0
7.720170917E0,-6.440907121E-1,-4.221185684E0,-4.056168079E0,5.889461853E0
7.740156389E0,8.876043558E-1,-4.517084122E0,-3.821562290E0,5.982994968E0
7.760107030E0,2.489480019E0,-5.175511360E0,-5.253586769E0,7.783546913E0
7.780038588E0,2.982238770E0,-5.420994759E0,-6.671440125E0,9.098848586E0
7.800006157E0,2.287002325E0,-5.556126118E0,-7.196124554E0,9.374706697E0
7.819932140E0,1.268548012E0,-5.378997803E0,-6.347618103E0,8.416358298E0
7.839891530E0,5.922604799E-1,-5.536936760E0,-5.768858910E0,8.017990663E0
7.859885099E0,6.859061122E-1,-4.843456268E0,-5.255322456E0,7.179690100E0
7.879792812E0,5.398601294E-2,-4.413840294E0,-4.328789234E0,6.182500858E0
7.899743861E0,-9.697532654E-1,-4.320822239E0,-3.156664371E0,5.438240172E0
7.919693973E0,-1.145486116E0,-3.013978720E0,-1.548800945E0,3.577008601E0
7.939644533E0,-1.025424957E0,-1.734046459E0,1.685408592E0,2.626597721E0
7.959597819E0,-7.031836510E-1,-4.452490807E-1,5.900730610E0,5.959138841E0
7.979546141E0,-3.305045664E-1,2.511877537E0,6.888364315E0,7.339504409E0
7.999497190E0,2.724770784E0,8.284023285E0,6.988468170E0,1.117533467E1
8.019476111E0,3.863589764E0,1.200431252E1,1.068657875E1,1.652978555E1
8.039395095E0,4.308141470E-1,1.147653866E1,1.993785858E1,2.300901443E1
8.059366611E0,-3.510483742E0,9.201901436E0,2.617384338E1,2.796548880E1
8.079311555E0,-2.970351696E0,6.910725594E0,1.774853706E1,1.927671355E1
8.099269399E0,6.161421537E-2,6.277770996E0,5.679335594E0,8.465757957E0
8.119230864E0,2.840305567E0,4.713798523E0,-2.012155533E0,5.859693005E0
8.139171129E0,1.466795325E0,1.301286697E0,-6.234671593E0,6.535745211E0
8.159103094E0,-8.570361137E-1,-2.142015457E0,-8.566976547E0,8.872194107E0
8.179046859E0,-1.015360951E0,-5.008378983E0,-8.018915176E0,9.508828450E0
8.199023379E0,-9.540830851E-1,-6.944717884E0,-6.212221146E0,9.366486672E0
8.218974183E0,-2.493594170E0,-7.055672646E0,-3.949309826E0,8.461535113E0
8.238924784E0,-1.917389512E0,-6.473429680E0,-2.423219681E0,7.173121216E0
8.258875629E0,3.148790598E-1,-6.482769966E0,-3.124940872E0,7.203520716E0
8.278826311E0,2.295879364E0,-6.359657764E0,-4.427550316E0,8.082048672E0
8.298777237E0,3.157821655E0,-6.605259895E0,-5.485223293E0,9.148167602E0
8.318727553E0,3.048793316E0,-6.696689129E0,-6.412889004E0,9.760426801E0
8.338662040E0,2.083636284E0,-6.617473125E0,-7.072965622E0,9.907539221E0
8.358619924E0,9.041879177E-1,-6.410259247E0,-7.179370880E0,9.667075340E0
8.378579274E0,7.877520323E-1,-6.228462696E0,-6.647078991E0,9.143191999E0
8.398542834E0,1.077010274E0,-6.109197617E0,-5.963671207E0,8.605092732E0
8.418482987E0,1.358851075E0,-5.887415886E0,-5.123609543E0,7.922090432E0
8.438414342E0,1.328334212E0,-5.341808319E0,-4.068225861E0,6.844694993E0
8.458356702E0,7.926279902E-1,-4.541360855E0,-2.754119396E0,5.370045735E0
8.478298708E0,-9.854164124E-1,-3.308614731E0,-1.100597858E0,3.623436572E0
8.498255982E0,-2.543676853E0,-9.133319855E-1,-7.641348839E-1,2.808624106E0
8.518206176E0,-9.424781799E-2,9.731068611E-1,-2.694828510E0,2.866691528E0
8.538170123E0,2.575762272E0,4.270102024E0,-1.990296841E0,5.369320636E0
8.558117143E0,-2.370997429E0,6.505119324E0,4.514122963E0,8.265319858E0
8.578068272E0,-9.632045746E0,6.448168278E0,1.724788666E1,2.078087519E1
8.598019239E0,-1.021799660E1,5.279899120E0,2.556918716E1,2.803690642E1
8.617970247E0,-5.255335808E0,5.475566387E0,2.451205063E1,2.566010537E1
8.637949046E0,-3.074276924E0,6.741238117E0,1.576937771E1,1.742322425E1
8.657884469E0,-2.843990803E0,6.667869091E0,5.361126900E0,9.016121313E0
8.677821968E0,-6.575731039E-1,5.445598602E0,-2.326542377E0,5.958166325E0
8.697789984E0,7.854435444E-1,3.389422417E0,-6.231793880E0,7.137251631E0
8.717742660E0,1.219471693E0,9.270071983E-1,-7.327713966E0,7.486110173E0
8.737693301E0,-3.234481812E-2,-1.076183796E0,-6.972270012E0,7.054910834E0
8.757641908E0,-9.098656178E-1,-2.087693214E0,-6.451614857E0,6.841758009E0
8.777589253E0,3.505988121E-1,-2.764838457E0,-6.227586746E0,6.822762483E0
8.797545307E0,1.675187588E0,-3.050516605E0,-6.048885345E0,6.978604369E0
8.817495826E0,1.775473714E0,-2.937180042E0,-6.006482124E0,6.917887034E0
8.837427302E0,7.602872849E-1,-2.602383614E0,-5.921605110E0,6.512744760E0
8.857397638E0,-6.351535320E-1,-1.851685524E0,-5.790770531E0,6.112706653E0
8.877348889E0,-4.546928406E-1,-1.371691465E0,-6.077663422E0,6.247101386E0
8.897299043E0,5.818722248E-1,-9.831118584E-1,-5.704205513E0,5.817477524E0
8.917250457E0,1.096408129E0,-7.323374748E-1,-4.293402195E0,4.491295066E0
8.937182503E0,7.040271759E-1,2.402358055E-1,-3.747316837E0,3.820438586E0
8.957151089E0,-6.356840134E-1,7.301449776E-1,-1.763463974E0,2.011718430E0
8.977102544E0,-7.323186398E-1,2.076965809E0,4.374124050E0,4.897248081E0
8.997053023E0,-9.994926453E-1,3.615248680E0,7.896990299E0,8.742509042E0
9.017002036E0,-1.934190989E0,5.524789810E0,6.078976631E0,8.439096759E0
9.036935588E0,-2.981695175E0,6.624718666E0,7.749932289E0,1.062256344E1
9.056886596E0,-3.974421501E0,5.650362015E0,1.264551544E1,1.440943017E1
9.076854083E0,-4.737474442E0,2.944223404E0,1.855874634E1,1.937883333E1
9.096806514E0,-4.703054905E0,1.451210499E0,1.606356430E1,1.680067961E1
9.116757481E0,-5.673873425E0,8.212842941E-1,8.622198105E0,1.035420918E1
9.136689202E0,-4.063049793E0,3.329381943E-1,1.947298050E0,4.517874628E0
9.156658764E0,-1.085092545E0,-3.876113892E-2,-2.023768902E0,2.296642947E0
9.176609731E0,5.163369179E-1,-9.252648354E-1,-4.267428398E0,4.397006250E0
9.196560129E0,2.027609825E0,-2.242937803E0,-5.798915863E0,6.539831556E0
9.216510771E0,3.329230547E0,-3.242413998E0,-6.861860752E0,8.287469912E0
9.236442695E0,1.627061844E0,-3.236642838E0,-6.989682198E0,7.872664373E0
9.256412542E0,-9.724664688E-2,-2.571234703E0,-6.512734413E0,7.002600542E0
9.276363631E0,-2.412033081E-2,-3.569782495E0,-8.254927635E0,8.993762234E0
9.296313784E0,1.402866840E0,-4.615848064E0,-9.109769821E0,1.030834589E1
9.316264547E0,2.637592316E0,-5.188883781E0,-8.094263077E0,9.969879782E0
9.336208719E0,3.073713541E0,-5.071138859E0,-6.306901932E0,8.656857180E0
9.356166400E0,1.415504217E0,-4.497504234E0,-5.019961357E0,6.887031912E0
9.376117733E0,-3.328969479E-1,-3.752640247E0,-4.557626724E0,5.913128661E0
9.396048314E0,6.612479687E-1,-3.338053226E0,-6.186216354E0,7.060390995E0
9.416018446E0,1.830277443E0,-3.253205776E0,-6.107137680E0,7.157541057E0
9.435969535E0,5.705008507E-1,-2.499259949E0,-3.190926075E0,4.093138249E0
9.455920299E0,-9.738891125E-1,-6.735253334E-1,-3.883614540E-1,1.246162508E0
9.475871062E0,-1.140281439E0,1.173793793E0,7.489447594E-1,1.799708832E0
9.495796272E0,4.081451893E-1,2.926708698E0,2.677811623E0,3.987841695E0
9.515771979E0,-7.157282829E-1,5.430391788E0,7.994830132E0,9.691167669E0
9.535723637E0,-2.368278503E0,7.687351227E0,1.241429138E1,1.479252319E1
9.555673790E0,-1.981198430E0,8.519733429E0,1.070836449E1,1.382678831E1
9.575624554E0,-1.588879704E0,7.528171062E0,8.817350388E0,1.170228893E1
9.595559530E0,-1.496126652E0,5.449451447E0,1.107384872E1,1.243241898E1
9.615525877E0,-1.825038671E0,3.616195679E0,1.121120644E1,1.192051958E1
9.635458127E0,-2.034144402E0,2.405586720E0,7.406008720E0,8.048202040E0
9.655408565E0,-2.272101641E0,1.194167137E0,3.046370029E0,3.983572690E0
9.675359491E0,-2.052217007E0,1.022877693E-1,-5.068387985E-1,2.116351341E0
9.695310092E0,-1.441011429E-1,-1.028344870E0,-3.681079388E0,3.824735778E0
9.715277579E0,2.007400513E0,-2.324275494E0,-6.221718788E0,6.938421872E0
9.735230540E0,3.953376532E0,-2.626221895E0,-8.192544937E0,9.468052598E0
9.755181100E0,4.889307499E0,-3.085118294E0,-9.997966766E0,1.154913946E1
9.775132026E0,5.154417038E0,-3.309904814E0,-1.040790653E1,1.207675467E1
9.795064112E0,5.014607430E0,-3.351702213E0,-9.634379387E0,1.136668208E1
9.815039453E0,4.841492653E0,-3.296633244E0,-8.495541573E0,1.031901490E1
9.834984560E0,4.480423927E0,-3.165912151E0,-7.718152523E0,9.469270124E0
9.854929119E0,3.358904362E0,-2.778344631E0,-7.321846008E0,8.521200993E0
9.874885762E0,2.883186102E0,-2.595113993E0,-6.952407360E0,7.961365890E0
9.894836566E0,3.203349352E0,-2.644016981E0,-6.730806351E0,7.909236815E0
9.914777319E0,2.484341145E0,-1.711736917E0,-5.579510689E0,6.342943617E0
9.934738662E0,-2.716889381E-1,-9.008631706E-1,-3.272980213E0,3.405549707E0
9.954679416E0,-1.854688168E0,9.277758598E-1,-3.144636154E-1,2.097504138E0
9.974637809E0,-2.433419704E0,2.311029434E0,3.855998993E0,5.111860399E0
9.994590261E0,-4.655214310E0,4.760763645E0,9.237099648E0,1.138683014E1
1.001453173E1,-6.338994503E0,7.506587505E0,1.294744015E1,1.625324317E1
1.003449040E1,-5.195172310E0,8.891124725E0,1.815954018E1,2.087608233E1
1.005443289E1,-5.752163887E0,7.695489407E0,2.489709473E1,2.668657476E1
1.007439338E1,-6.281121731E0,4.886934280E0,2.704130173E1,2.818805804E1
1.009432548E1,-5.453721046E0,3.172925949E0,1.983636475E1,2.081566474E1
1.011427629E1,-2.368852615E0,1.817352772E0,9.591842651E0,1.004577918E1
1.013422862E1,5.439319611E-1,1.710214615E-1,1.931061268E0,2.013481547E0
1.015417769E1,2.457918644E0,-2.299139023E0,-3.442309856E0,4.814239447E0
1.017412829E1,3.275217533E0,-3.750345945E0,-6.680488110E0,8.331930507E0
1.019408864E1,3.810905457E0,-4.346338272E0,-7.805623531E0,9.712950916E0
1.021403946E1,4.740023136E0,-4.413331032E0,-8.501844406E0,1.068768770E1
1.023398437E1,5.747961998E0,-4.666930676E0,-9.197626114E0,1.180743982E1
1.025395011E1,6.684480667E0,-5.331451416E0,-9.523309708E0,1.279844068E1
1.027390103E1,6.987425804E0,-5.985999584E0,-8.904676437E0,1.280427947E1
1.029384974E1,7.314980030E0,-5.401525497E0,-7.297778130E0,1.165945866E1
1.031379267E1,6.574447632E0,-4.705162048E0,-5.901591301E0,1.000953003E1
1.033375293E1,4.756439209E0,-4.150312424E0,-5.694117546E0,8.501281185E0
1.035370207E1,3.373809576E0,-3.449847221E0,-6.086646080E0,7.767322409E0
1.037364785E1,3.583599091E0,-3.442881107E0,-7.411293030E0,8.923165197E0
1.039359605E1,4.624902725E0,-3.805800676E0,-7.943078041E0,9.948182385E0
1.041355617E1,4.326827049E0,-2.919103622E0,-5.610343933E0,7.662803490E0
1.043350683E1,1.855537891E0,-7.046051025E-1,-2.785127163E0,3.420003294E0
1.045345764E1,-1.099109173E0,8.583912849E-1,-3.073284626E0,3.374900734E0
1.047339007E1,-8.470404148E-1,1.228807449E0,-2.305795193E0,2.746659186E0
1.049334102E1,3.005862236E0,2.977315903E0,2.647387028E0,4.990819155E0
1.051329186E1,2.154539824E0,5.217810631E0,8.295289993E0,1.003391378E1
1.053326065E1,-3.528380394E0,5.690989017E0,1.501176262E1,1.643745239E1
1.055321180E1,-3.564507961E0,2.736744404E0,1.783659935E1,1.839401433E1
1.057315481E1,-3.136678696E0,9.953451157E-1,2.461198997E1,2.483101922E1
1.059310128E1,-5.340571404E0,1.029038429E-1,3.092767715E1,3.138556207E1
1.061306179E1,-3.151482821E0,1.049089432E-2,2.490532303E1,2.510392537E1
1.063301463E1,1.338025570E0,6.684575081E-1,1.238095856E1,1.247097761E1
1.065296515E1,2.876944065E0,1.477986336E0,4.564313889E0,5.594122991E0
1.067291414E1,2.252100229E0,1.342575550E0,1.406042099E0,2.975133431E0
1.069285667E1,9.916248322E-1,2.713203430E-1,-9.477419853E-1,1.398266572E0
1.071281628E1,-2.157479525E-1,-1.498248577E0,-3.332930565E0,3.660563089E0
1.073276759E1,-1.312527776E0,-3.130830288E0,-4.449714661E0,5.596855190E0
1.075271882E1,-3.107767105E-1,-3.877591610E0,-4.807732105E0,6.184382496E0
1.077267718E1,1.473287106E0,-4.397751331E0,-4.677979469E0,6.587433763E0
1.079261144E1,3.418552399E0,-4.479515076E0,-4.961285114E0,7.507789675E0
1.081257096E1,4.319845676E0,-4.308792591E0,-6.372312069E0,8.822308165E0
1.083252216E1,4.444165230E0,-3.570683479E0,-8.172992706E0,9.964847961E0
1.085247289E1,3.767020702E0,-3.044609547E0,-1.006003284E1,1.116531921E1
1.087242357E1,2.198158503E0,-3.014204025E0,-1.146342754E1,1.205518551E1
1.089237454E1,8.139152527E-1,-2.406974316E0,-1.133144951E1,1.161282616E1
1.091230605E1,7.183989286E-1,-2.147682428E0,-9.605445862E0,9.868800689E0
1.093225743E1,5.083889961E-1,-1.566727400E0,-7.052842140E0,7.242629106E0
1.095220764E1,-1.348100185E0,-1.074690342E0,-4.856632710E0,5.153563303E0
1.097216685E1,-2.332227230E0,-8.696212769E-1,-5.100388527E0,5.675340355E0
1.099210931E1,-1.208640337E0,-1.305796146E0,-5.863631725E0,6.127649798E0
1.101206060E1,1.789135933E-1,-1.494925499E0,-3.863088608E0,4.146114556E0
1.103200892E1,-4.865667820E-1,-1.715544701E0,-6.761956215E-1,1.907113361E0
1.105195350E1,-2.048341274E0,-1.816318989E0,1.002377987E0,2.915386471E0
1.107191312E1,-1.447598696E0,-2.300002575E0,2.873413086E0,3.955003994E0
1.109186396E1,3.672949076E-1,-2.138786793E0,7.489273071E0,7.797340933E0
1.111181442E1,1.053830028E0,8.368206024E-2,1.104333591E1,1.109381938E1
1.113176586E1,-2.123879194E0,3.289295197E0,1.264344788E1,1.323582638E1
1.115171597E1,-2.221913576E0,4.374246597E0,1.323412609E1,1.411428449E1
1.117166797E1,2.630676270E0,5.197766781E0,1.154628468E1,1.293266898E1
1.119161697E1,4.756393433E0,6.988737583E0,1.145452881E1,1.423629031E1
1.121156889E1,3.285898685E0,5.848304749E0,1.184104538E1,1.360919374E1
1.123151493E1,1.164541245E0,4.036190510E0,9.388197899E0,1.028519567E1
1.125146114E1,-3.705702424E-1,1.387350082E0,5.057773113E0,5.257673575E0
1.127142112E1,-2.907674789E0,-9.428458214E-1,1.291066170E0,3.318189684E0
1.129137609E1,-4.074778557E0,-2.523857594E0,-1.107203484E0,4.919306556E0
1.131132240E1,-2.172770262E0,-3.624368668E0,-3.120479107E0,5.253034238E0
1.133129070E1,5.586410761E-1,-3.862940788E0,-4.368423462E0,5.858115305E0
1.135122466E1,1.921911240E0,-3.971783876E0,-4.140213966E0,6.050634815E0
1.137119266E1,1.322461843E0,-4.170358658E0,-3.917350769E0,5.872515109E0
1.139114281E1,1.714974165E0,-4.092010975E0,-4.888732433E0,6.601923584E0
1.141109461E1,2.972077608E0,-3.866455555E0,-6.287607670E0,7.957181290E0
1.143103571E1,3.977858543E0,-3.868506908E0,-7.680887222E0,9.475480611E0
1.145099331E1,3.589951754E0,-3.752577543E0,-7.876841068E0,9.434734603E0
1.147094658E1,2.728091717E0,-3.934656382E0,-7.091581345E0,8.556549025E0
1.149089746E1,8.604909182E-1,-3.816566944E0,-5.640782356E0,6.864769002E0
1.151084704E1,9.698059559E-1,-3.440150023E0,-4.981863976E0,6.131404769E0
1.153079793E1,1.522475123E0,-3.025895119E0,-5.021844387E0,6.057465874E0
1.155075085E1,1.400018454E0,-2.178131104E0,-4.906681538E0,5.547957326E0
1.157069940E1,9.145319462E-1,3.638987541E-1,-3.813529253E0,3.938501790E0
1.159065134E1,7.822808623E-1,2.336018562E0,-1.770519733E0,3.033757768E0
1.161059211E1,-6.157244444E-1,2.199152946E0,2.038274288E0,3.061037789E0
1.163055134E1,-1.322367191E0,2.493581295E0,4.855438709E0,5.616216495E0
1.165050336E1,-1.412320375E0,3.510226250E0,7.378941536E0,8.292473416E0
1.167045413E1,-3.781514764E-1,4.353376389E0,1.183240414E1,1.261351149E1
1.169038790E1,2.261449099E0,6.206162453E0,1.210614777E1,1.379091796E1
1.171034522E1,3.748806477E0,7.874266624E0,1.139746761E1,1.435130283E1
1.173030656E1,3.704801321E0,6.534425735E0,1.315400314E1,1.514767544E1
1.175025726E1,4.333897591E0,4.723936081E0,1.195728588E1,1.356742150E1
1.177020693E1,4.310800076E0,3.420361519E0,8.542416573E0,1.016143450E1
1.179015708E1,2.700206041E0,1.993830681E0,5.690470219E0,6.606657609E0
1.181009462E1,1.022007912E-1,-4.627313614E-1,2.645345688E0,2.687455883E0
1.183005934E1,-2.456773281E0,-2.559398651E0,-9.713058472E-1,3.678272891E0
1.185001090E1,-3.576094627E0,-3.672118664E0,-3.229210377E0,6.058110920E0
1.186996160E1,-3.140504360E0,-4.105940819E0,-3.365466595E0,6.168296608E0
1.188990445E1,-1.633277059E0,-4.750172615E0,-3.461585522E0,6.100353117E0
1.190985352E1,2.845814228E-1,-5.218811512E0,-3.685701370E0,6.395418264E0
1.192981389E1,1.408055782E0,-5.261605263E0,-3.905056238E0,6.701982934E0
1.194975550E1,1.407135010E0,-5.154358387E0,-4.510123253E0,6.992041982E0
1.196971098E1,9.016541839E-1,-4.913855076E0,-5.443652153E0,7.388660280E0
1.198965715E1,6.421038508E-1,-4.833055496E0,-6.707549572E0,8.292282198E0
1.200961607E1,6.505548954E-1,-4.838135242E0,-7.332975864E0,8.809274052E0
1.202956791E1,8.784793019E-1,-4.776219368E0,-7.156466961E0,8.648642477E0
1.204951874E1,1.186948895E0,-4.485103607E0,-6.183392525E0,7.730416882E0
1.206946942E1,1.010098457E0,-3.726965427E0,-4.777672768E0,6.143022649E0
1.208941860E1,-3.289926052E-2,-2.818397999E0,-3.989347696E0,4.884602817E0
1.210935198E1,-5.475974083E-1,-2.062674999E0,-4.241341114E0,4.747995948E0
1.212930698E1,3.271019459E-2,-7.749261856E-1,-4.268660545E0,4.338553146E0
1.214927052E1,-5.514081717E-1,5.772762299E-1,-3.536694050E0,3.625672851E0
1.216922364E1,-2.905163288E0,1.256640911E0,-2.049890995E0,3.771097082E0
1.218917404E1,-4.370845795E0,1.336939335E0,-1.714487076E-1,4.573958286E0
1.220912521E1,-3.495851278E0,2.187426567E0,3.403904915E0,5.347184289E0
1.222907182E1,-1.171358466E0,4.764752388E0,7.583730221E0,9.032602617E0
1.224902592E1,-3.228032589E-1,8.611888885E0,1.089498901E1,1.389135046E1
1.226897714E1,-4.286136627E-1,9.309889793E0,1.534529686E1,1.795371531E1
1.228890914E1,5.630604029E-1,7.807995319E0,1.804382515E1,1.966879391E1
1.230887846E1,3.479842424E0,6.814390659E0,1.536768246E1,1.716714558E1
1.232881217E1,6.476320744E0,5.238477707E0,1.033536816E1,1.327419353E1
1.234877852E1,6.769425869E0,3.485596657E0,7.953239918E0,1.101038309E1
1.236873054E1,2.649695158E0,1.466885090E0,5.857242584E0,6.593931072E0
1.238868172E1,-1.305127144E0,-9.770412445E-1,1.713646412E0,2.365280212E0
1.240863049E1,-2.343734026E0,-3.217206955E0,-2.080677986E0,4.491406312E0
1.242858312E1,-1.425260305E0,-4.382214546E0,-3.522334099E0,5.800173167E0
1.244853181E1,2.409169674E-1,-4.880434513E0,-4.036359787E0,6.337892580E0
1.246848269E1,1.320058823E0,-5.108263493E0,-4.704446316E0,7.068856084E0
1.248843557E1,1.340580940E0,-5.139635563E0,-6.167353153E0,8.139364588E0
1.250836744E1,1.222146273E0,-5.199759483E0,-7.892338276E0,9.529960318E0
1.252831865E1,1.131844521E0,-4.890994072E0,-9.366860390E0,1.062736885E1
1.254826909E1,8.624255061E-1,-4.372857094E0,-1.051414108E1,1.141984324E1
1.256822697E1,-1.666417122E-1,-3.813581944E0,-9.485349655E0,1.022462883E1
1.258817374E1,-1.336692691E0,-2.850644827E0,-6.643719673E0,7.352002066E0
1.260813102E1,-1.568636656E0,-1.914703131E0,-5.028952599E0,5.605093512E0
1.262809100E1,-1.487320065E0,-9.235029221E-1,-5.406855583E0,5.683226717E0
1.264804156E1,-1.747314095E0,-1.595582962E-1,-5.958223820E0,6.211199279E0
1.266799934E1,-1.911661506E0,7.518610954E-1,-5.430641174E0,5.806169855E0
1.268794290E1,-2.272439718E0,1.870384216E0,-3.491915226E0,4.566814134E0
1.270789314E1,-3.001232624E0,2.242119312E0,-1.048334599E0,3.890180164E0
1.272784280E1,-3.626324892E0,2.292122841E0,2.308714867E0,4.871778287E0
1.274779759E1,-2.099153042E0,2.008591652E0,4.928696156E0,5.721269939E0
1.276773700E1,1.924423695E0,3.749909401E0,7.429059505E0,8.541437362E0
1.278769574E1,3.703093529E0,8.103326797E0,9.824596405E0,1.326271094E1
1.280764785E1,8.743577003E-1,9.073332787E0,1.816689301E1,2.032549804E1
1.282759841E1,1.305911183E0,6.447423458E0,2.284733009E1,2.377551610E1
1.284754818E1,3.283787966E0,4.962599277E0,1.836386490E1,1.930394232E1
1.286749988E1,3.995489120E0,3.329775810E0,1.050479984E1,1.172186675E1
1.288745086E1,3.013536930E0,1.544823647E0,4.240871429E0,5.427050341E0
1.290739626E1,2.332515240E0,-1.045520306E0,-1.448935986E0,2.938223195E0
1.292734285E1,1.294058084E0,-2.932778358E0,-6.845888615E0,7.559230526E0
1.294730346E1,9.188026786E-1,-4.728353500E0,-9.879704475E0,1.099136414E1
1.296725347E1,1.528517723E0,-5.864631653E0,-8.374116898E0,1.033712265E1
1.298720281E1,1.209345818E0,-5.871366978E0,-5.029537678E0,7.825069760E0
1.300715563E1,4.240005016E-1,-4.817918777E0,-2.152865410E0,5.294048285E0
1.302709510E1,1.164148450E0,-4.372563839E0,-2.553246498E0,5.195538838E0
1.304705494E1,2.751385927E0,-4.508340836E0,-5.370191574E0,7.532212102E0
1.306700757E1,3.902951479E0,-4.302685261E0,-8.164735794E0,1.002043119E1
1.308695844E1,3.232877254E0,-4.074344635E0,-1.007207298E1,1.133571496E1
1.310689754E1,1.916699648E0,-3.467123032E0,-9.167765617E0,9.987122011E0
1.312685079E1,1.944153786E0,-3.554876328E0,-7.262032986E0,8.315888571E0
1.314681099E1,2.919320822E0,-4.036564827E0,-6.107593536E0,7.881560028E0
1.316676161E1,3.772214890E0,-4.326163292E0,-5.981124401E0,8.289701026E0
1.318671246E1,3.198130846E0,-4.202934265E0,-5.787405968E0,7.834970656E0
1.320665354E1,2.226202965E0,-3.436849594E0,-4.753947258E0,6.274386767E0
1.322661398E1,1.551615000E0,-2.767880440E0,-3.829704762E0,4.973460545E0
1.324654571E1,1.351818562E0,-1.649036646E0,-2.677850723E0,3.423100901E0
1.326651543E1,6.924214363E-1,-8.671956062E-1,-1.770986080E0,2.089944344E0
1.328646636E1,-9.528512955E-1,-3.947591782E-2,-1.080674171E0,1.441298236E0
1.330641484E1,-2.573646307E0,1.352538586E0,9.495306015E-1,3.058533031E0
1.332636793E1,-3.091795444E0,2.388451099E0,3.844879150E0,5.481513788E0
1.334628536E1,-3.446724176E0,3.763685226E0,5.992098808E0,7.870862860E0
1.336626726E1,-3.944892883E0,5.378688812E0,7.278123379E0,9.872363097E0
1.338622030E1,-4.265252590E0,5.693041801E0,1.073376560E1,1.287698834E1
1.340617102E1,-4.759057522E0,6.490018845E0,1.276947212E1,1.509398527E1
1.342611979E1,-5.257620811E0,7.785161495E0,1.733011627E1,1.971254033E1
1.344605318E1,-6.268278122E0,7.325564384E0,2.715890694E1,2.881946270E1
1.346602193E1,-6.449579716E0,5.081607342E0,3.134435463E1,3.240198109E1
1.348597403E1,-3.418291092E0,3.467776775E0,2.098365021E1,2.154121087E1
1.350592484E1,-5.584692955E-2,2.473621845E0,7.395491600E0,7.798411371E0
1.352587532E1,1.839244723E0,1.922262192E0,-1.432366371E-1,2.664287864E0
1.354580793E1,1.092862248E0,5.330362320E-1,-1.263931274E0,1.753852270E0
1.356577660E1,4.690370560E-1,-1.843743324E0,3.534741402E-1,1.935026918E0
1.358572761E1,-8.962357044E-1,-3.219885826E0,1.580031872E0,3.696945210E0
1.360565201E1,-1.025629044E0,-9.787874222E-1,2.985209465E0,3.304756467E0
1.362561271E1,5.597746372E-1,2.007203102E-1,-8.781414032E-1,1.060551089E0
1.364556116E1,1.416474819E0,-2.363858223E-1,-5.782668114E0,5.958316011E0
1.366550885E1,3.082046986E0,-1.204533577E0,-6.248733997E0,7.070826778E0
1.368547253E1,4.562544346E0,-2.448869705E0,-5.403237820E0,7.483899564E0
1.370541408E1,4.479281902E0,-3.335513592E0,-4.823019028E0,7.379100882E0
1.372536452E1,5.232583046E0,-3.175007820E0,-4.621757507E0,7.669500795E0
1.374531679E1,6.803811550E0,-3.648664474E0,-6.660212517E0,1.019622650E1
1.376526995E1,7.497478485E0,-4.263567924E0,-7.927603722E0,1.171482377E1
1.378521658E1,7.383035660E0,-4.223369598E0,-6.964674950E0,1.099330539E1
1.380516847E1,5.133893490E0,-3.955191135E0,-5.536342144E0,8.523583966E0
1.382513689E1,4.095963001E0,-3.437988758E0,-4.817028999E0,7.197252808E0
1.384508737E1,4.293663502E0,-3.831595659E0,-6.108561516E0,8.392329555E0
1.386503813E1,4.819771290E0,-4.141410351E0,-7.129406929E0,9.550388376E0
1.388500006E1,4.546020031E0,-4.397346497E0,-7.308163643E0,9.664999232E0
1.390493972E1,3.932788372E0,-4.234516144E0,-6.494110584E0,8.693182595E0
1.392489056E1,3.889089108E0,-3.774140358E0,-5.599453926E0,7.792498559E0
1.394485050E1,4.137384892E0,-3.404255390E0,-5.204257011E0,7.469350677E0
1.396477329E1,4.785968781E0,-3.266378880E0,-5.167381287E0,7.763797880E0
1.398472520E1,4.738631725E0,-3.164745569E0,-5.341518402E0,7.810381808E0
1.400467578E1,4.280765533E0,-2.911651134E0,-5.502170086E0,7.554901822E0
1.402462630E1,3.862333298E0,-2.499361277E0,-4.441266060E0,6.394471793E0
1.404457751E1,3.381382942E0,-1.797650337E0,-2.219569683E0,4.426261054E0
1.406452744E1,2.258960247E0,-1.664854765E0,-4.044890404E-1,2.835181506E0
1.408448709E1,9.318423271E-1,-1.833012819E0,-1.550332546E0,2.575227586E0
1.410444760E1,2.227041245E0,-7.244772911E-1,-3.853855610E0,4.509632259E0
1.412439659E1,1.802410007E0,2.633967876E0,1.908947945E0,3.718944859E0
1.414433932E1,-4.068884850E0,1.913524151E0,1.442091751E1,1.510563671E1
1.416429938E1,-5.706691742E0,2.008144855E0,1.850940323E1,1.947298088E1
1.418425077E1,-3.744076252E0,3.493246555E0,1.684921646E1,1.761013838E1
1.420420148E1,-4.049698830E0,4.712548733E0,1.716312027E1,1.825324282E1
1.422415116E1,-5.195871353E0,5.659386158E0,1.698593521E1,1.864263194E1
1.424409348E1,-6.841637135E0,5.819839001E0,1.354242325E1,1.625040775E1
1.426405179E1,-8.660221100E0,5.650790215E0,1.016130924E1,1.449769172E1
1.428400439E1,-8.042263031E0,5.138519764E0,9.359669685E0,1.336734067E1
1.430395487E1,-6.973376274E0,4.043474197E0,1.157110977E1,1.410206515E1
1.432389853E1,-6.050875187E0,2.438539028E0,1.283060169E1,1.439388422E1
1.434384844E1,-5.148277283E0,1.303230286E0,1.128031349E1,1.246790442E1
1.436380714E1,-3.529338598E0,3.869104385E-1,7.800571442E0,8.570580228E0
1.438375633E1,-2.558857203E0,-9.139332771E-1,4.604248524E0,5.346225649E0
1.440370879E1,-2.022588015E0,-1.669172764E0,2.538772583E0,3.649981674E0
1.442365027E1,-1.315768719E0,-1.184127808E0,1.346467495E0,2.224046020E0
1.444360100E1,-2.457047939E0,-6.885323524E-1,9.198513031E-1,2.712432081E0
1.446355174E1,-7.046008110E-1,-1.606558561E0,-1.227533340E0,2.141105045E0
1.448351210E1,1.999831796E0,-2.857282877E0,-3.573225021E0,4.993128248E0
1.450346260E1,3.908832073E0,-3.455378771E0,-4.599660873E0,6.955249153E0
1.452340470E1,4.202990055E0,-3.495860338E0,-5.419215202E0,7.697665771E0
1.454334991E1,4.073258400E0,-3.043772459E0,-6.666647434E0,8.384519830E0
1.456331473E1,4.333910465E0,-2.898380280E0,-8.560398102E0,1.002316336E1
1.458326383E1,4.563018799E0,-3.121084690E0,-9.973726273E0,1.140339975E1
1.460319780E1,5.077116013E0,-3.240631580E0,-1.065593719E1,1.224041656E1
1.462314934E1,4.945387363E0,-3.496442318E0,-1.052694035E1,1.214489350E1
1.464309923E1,3.979358196E0,-3.585602760E0,-9.993354797E0,1.133838520E1
1.466305034E1,3.627441645E0,-3.581946373E0,-9.477573395E0,1.076164812E1
1.468300047E1,3.956649780E0,-3.731430292E0,-9.449357033E0,1.090270599E1
1.470295199E1,4.329830170E0,-3.893750906E0,-9.384438515E0,1.104429317E1
1.472290273E1,4.310707092E0,-4.064540863E0,-9.037434578E0,1.080638292E1
1.474285345E1,3.997716188E0,-4.104299068E0,-8.465496063E0,1.022211471E1
1.476280416E1,3.176231384E0,-3.812346458E0,-7.664504528E0,9.130556444E0
1.478275508E1,2.364820004E0,-3.188825607E0,-6.674276352E0,7.765754775E0
1.480271582E1,1.337192059E0,-2.383311510E0,-5.341357231E0,5.999862784E0
1.482265677E1,1.227006674E0,-1.616411209E0,-5.301559448E0,5.676694739E0
1.484260737E1,1.063766479E0,-1.140138626E0,-5.321981907E0,5.545719667E0
1.486255785E1,5.097925663E-1,-7.666087151E-1,-2.869653225E0,3.013716479E0
1.488249972E1,-1.257184982E0,5.307540894E-1,5.636405945E-2,1.365793136E0
1.490245148E1,-4.105247498E0,3.297064304E0,3.392157078E0,6.263419169E0
1.492241106E1,-6.125463009E0,4.081786156E0,1.067388153E1,1.296587915E1
1.494236119E1,-6.865746498E0,2.937606335E0,1.665413475E1,1.825180019E1
1.496232320E1,-5.519290924E0,3.399031162E0,1.926634216E1,2.032751646E1
1.498226247E1,-3.516606569E0,3.761754990E0,1.975201797E1,2.041223987E1
1.500222148E1,-2.797845364E0,4.316290379E0,1.915668106E1,1.983523961E1
1.502217222E1,-3.915705681E0,4.684604645E0,1.808079147E1,1.908384898E1
1.504212368E1,-4.760253906E0,4.377123833E0,1.599358559E1,1.725149299E1
1.506206614E1,-4.380652428E0,3.942049503E0,1.312758160E1,1.438969314E1
1.508203952E1,-3.151987076E0,3.209652424E0,1.088218784E1,1.177535152E1
1.510197487E1,-2.206535101E0,1.774969101E0,9.902742386E0,1.029969025E1
1.512194392E1,-4.854373932E-1,6.830692291E-1,9.827438354E0,9.863101827E0
1.514187753E1,-2.289541960E-1,-2.150254250E-1,9.051945686E0,9.057393481E0
1.516183692E1,-4.749653339E-1,-9.187169075E-1,4.449562073E0,4.568176383E0
1.518178881E1,7.316443920E-1,-1.464460373E0,-8.456311226E-1,1.842563349E0
1.520173924E1,2.010951042E0,-2.262181759E0,-3.776330948E0,4.839634886E0
1.522168930E1,2.972911358E0,-3.078173876E0,-5.719810486E0,7.143499727E0
1.524162828E1,1.798542738E0,-3.630874634E0,-6.930625916E0,8.028174274E0
1.526157310E1,1.576286077E0,-3.619184971E0,-7.981823921E0,8.904644337E0
1.528152330E1,2.093279362E0,-3.594604492E0,-9.120695114E0,1.002447402E1
1.530149314E1,2.367892981E0,-3.737284422E0,-1.072343063E1,1.160026623E1
1.532140948E1,2.172740936E0,-3.933307648E0,-1.211389637E1,1.292045655E1
1.534139239E1,2.364277601E0,-4.308291435E0,-1.208340073E1,1.304452976E1
1.536134535E1,2.275936365E0,-4.775202751E0,-1.153964996E1,1.269432822E1
1.538130287E1,2.097714424E0,-4.888181210E0,-1.018042660E1,1.148633131E1
1.540124688E1,1.408712626E0,-4.713041782E0,-7.941290855E0,9.341377551E0
1.542116953E1,-3.288392127E-1,-4.137791634E0,-6.091184616E0,7.371023325E0
1.544114836E1,-1.140350938E0,-3.960065365E0,-5.641580582E0,6.986411770E0
1.546109905E1,-3.688409626E-1,-3.971824408E0,-5.803269863E0,7.041972301E0
1.548104969E1,1.109382734E-1,-3.700207233E0,-5.695362568E0,6.792716368E0
1.550100094E1,-1.135307789E0,-3.091054440E0,-4.073580742E0,5.238091388E0
1.552095138E1,-2.056591511E0,-2.452653408E0,-1.425122261E0,3.503719572E0
1.554090011E1,-1.946243644E0,-1.530984402E0,-7.143454552E-1,2.577220788E0
1.556085278E1,-2.061173201E0,-1.625161171E-1,4.362449646E-1,2.113091602E0
1.558078743E1,-2.014063597E0,1.757229805E0,5.662250519E0,6.261420741E0
1.560075244E1,-2.739863873E0,2.901449203E0,9.658880234E0,1.045080039E1
1.562072452E1,-2.994528055E0,3.878561974E0,1.187220573E1,1.284366421E1
1.564065580E1,-2.611025810E0,4.375663280E0,1.558851433E1,1.640017268E1
1.566060453E1,-2.588335991E0,4.128394604E0,1.833452415E1,1.897097523E1
1.568058288E1,-3.696136951E0,4.589180470E0,1.677334213E1,1.777827360E1
1.570050813E1,-5.246842861E0,5.509824753E0,1.389705181E1,1.584347114E1
1.572044005E1,-3.599055290E0,4.644454002E0,1.178134060E1,1.316526256E1
1.574039102E1,-1.085938215E0,2.787523746E0,8.782951355E0,9.278458113E0
1.576035952E1,-1.026970148E-1,1.119786263E0,4.466891289E0,4.606255066E0
1.578028567E1,-4.474449158E-2,-3.610610962E-1,7.036538124E-1,7.921463706E-1
1.580026142E1,-3.436020613E-1,-1.694265842E0,-1.456595898E0,2.260590792E0
1.582021161E1,-1.538603544E0,-2.672363997E0,-2.790664196E0,4.158922559E0
1.584016311E1,-2.530389547E0,-3.640628099E0,-4.292181969E0,6.170888937E0
1.586011391E1,-2.095017433E0,-4.563180923E0,-5.505391598E0,7.451245187E0
1.588004628E1,-5.229513645E-1,-4.908860207E0,-6.101328850E0,7.848350170E0
1.590001568E1,3.785266876E-1,-5.098272324E0,-6.281936169E0,8.099283003E0
1.591996649E1,2.868003845E-1,-4.901325226E0,-6.382300377E0,8.052266857E0
1.593991721E1,-9.974285960E-1,-4.743648529E0,-6.923603535E0,8.451825310E0
1.595986545E1,-2.094357252E0,-4.437518120E0,-6.899557114E0,8.466509772E0
1.597979986E1,-1.754652143E0,-4.338635445E0,-6.831402779E0,8.280738227E0
1.599975058E1,-1.237912416E0,-4.578492165E0,-7.028311729E0,8.478925841E0
1.601970134E1,-1.433660865E0,-4.945900917E0,-6.996571541E0,8.687308713E0
1.603965198E1,-1.612435579E0,-4.791371822E0,-4.995031834E0,7.106865375E0
1.605960323E1,-2.239639282E0,-3.806008339E0,-2.590503693E0,5.119803997E0
1.607955367E1,-3.157664776E0,-2.741232872E0,-1.170933247E0,4.342382890E0
1.609950720E1,-2.854339123E0,-1.406566620E0,-8.901505470E-1,3.304247188E0
1.611945487E1,-9.478404522E-1,1.244111061E-1,-8.458681107E-1,1.276468765E0
1.613943713E1,2.042645216E-1,1.849460602E0,4.506225586E-1,1.914494503E0
1.615937561E1,-3.846046448E0,3.750753880E0,4.715420723E0,7.148106080E0
1.617934403E1,-5.916743279E0,5.383599758E0,1.045636749E1,1.316535676E1
1.619927726E1,-3.644199848E0,5.507212162E0,1.050863457E1,1.241132462E1
1.621922790E1,-7.621168494E-1,5.370101452E0,7.850584984E0,9.542038372E0
1.623917870E1,-2.777456045E-1,5.751407146E0,9.381655693E0,1.100778317E1
1.625912934E1,-8.590254784E-1,5.991241932E0,1.184801769E1,1.330445143E1
1.627907714E1,-2.948319912E-1,5.785071850E0,9.871812820E0,1.144581454E1
1.629901244E1,-5.163117647E-1,4.859774590E0,5.515475273E0,7.369155609E0
1.631896332E1,-8.743974566E-1,2.704241753E0,1.833226204E0,3.382042679E0
1.633892369E1,-3.692181110E-1,3.538141251E-1,-1.418248177E0,1.507625397E0
1.635888320E1,-2.022439241E-1,-1.384077072E0,-4.532291889E0,4.743231147E0
1.637883763E1,-7.348523140E-1,-2.885971069E0,-6.491905689E0,7.142385905E0
1.639878469E1,-1.166781664E0,-4.126091957E0,-6.430649757E0,7.729118358E0
1.641873533E1,-1.240774870E0,-5.231625557E0,-5.676882744E0,7.818978574E0
1.643868003E1,-1.093671679E0,-5.971664429E0,-4.965323448E0,7.842915959E0
1.645863677E1,-1.383603573E0,-6.125998497E0,-5.089364529E0,8.083554153E0
1.647858770E1,-1.617528915E0,-5.825953007E0,-5.933999538E0,8.471745909E0
1.649853004E1,-1.564515829E0,-5.542632103E0,-6.502182961E0,8.686015408E0
1.651847030E1,-3.717997074E-1,-5.057591438E0,-5.982567310E0,7.842740452E0
1.653842103E1,1.266130924E0,-3.697447777E0,-4.476310253E0,5.942353159E0
1.655837240E1,1.304023504E0,-1.820049286E0,-2.801462650E0,3.586258452E0
1.657832292E1,-2.821052074E-1,2.040588379E0,3.483057022E-2,2.060290622E0
1.659827397E1,5.006625652E-1,5.650761127E0,2.940985203E0,6.389926313E0
1.661822880E1,5.208239555E-1,4.544814587E0,4.475278854E0,6.399587334E0
1.663818115E1,4.858286381E-1,4.887229919E0,7.701946259E0,9.134605734E0
1.665811788E1,-7.436248064E-1,5.003856659E0,1.261432838E1,1.359091019E1
1.667809501E1,-8.001545668E-1,4.578582287E0,1.215263176E1,1.301115374E1
1.669805778E1,-5.883250237E-1,4.217166901E0,8.777949333E0,9.756178427E0
1.671797762E1,3.473019600E-2,3.617927074E0,5.126911163E0,6.275015584E0
1.673797310E1,6.910605431E-1,2.524507999E0,1.407350063E0,2.971756974E0
1.675788187E1,-1.471652985E-1,1.000888348E0,-1.890328884E0,2.144009888E0
1.677783959E1,-1.304406762E0,-3.964824677E-1,-3.657288074E0,3.903130975E0
1.679779878E1,-2.247724295E0,-1.551986456E0,-3.851381302E0,4.721659072E0
1.681774942E1,-2.400048494E0,-2.485786200E0,-3.530056477E0,4.939702879E0
1.683770154E1,-2.061300039E0,-3.055408239E0,-2.485142231E0,4.445268189E0
1.685762854E1,-1.747552633E0,-3.135793447E0,-1.441537857E0,3.868484476E0
1.687760248E1,-1.803935170E0,-3.432747841E0,-2.113062859E0,4.416217214E0
1.689755341E1,-1.944507718E0,-3.905295610E0,-3.201845169E0,5.411493006E0
1.691750391E1,-2.162294388E0,-4.282113075E0,-3.571499825E0,5.980603682E0
1.693744574E1,-2.591206551E0,-4.283579826E0,-3.851414204E0,6.316391287E0
1.695741727E1,-2.785628319E0,-3.957140446E0,-4.360730171E0,6.514188611E0
1.697735292E1,-2.847686052E0,-3.554607630E0,-3.691570759E0,5.862784826E0
1.699729758E1,-2.622959137E0,-2.682917595E0,-2.333299637E0,4.418398879E0
1.701724755E1,-3.218943596E0,-1.253073692E0,-7.811822891E-1,3.541473891E0
1.703719935E1,-3.932140350E0,7.315473557E-1,4.645147324E-1,4.026495151E0
1.705714985E1,-2.393376827E0,3.291335106E0,2.114511013E0,4.586098150E0
1.707709982E1,-9.907258749E-1,4.521813393E0,1.950680256E0,5.023294494E0
1.709705856E1,-1.120472670E0,5.610357285E0,3.621570110E0,6.771066233E0
1.711699223E1,-1.315970898E0,6.573084354E0,7.057892323E0,9.734015686E0
1.713695327E1,-1.070368409E0,6.347985268E0,9.818055153E0,1.174039235E1
1.715690635E1,2.223528326E-1,6.604646683E0,8.877166748E0,1.106683731E1
1.717686373E1,6.220625639E-1,6.539524555E0,5.399461746E0,8.503324667E0
1.719681461E1,2.957086861E-1,6.091499805E0,1.396598339E0,6.256540612E0
1.721676526E1,5.100001693E-1,5.032354832E0,-1.511050224E0,5.279012039E0
1.723672703E1,1.151512146E0,3.035549641E0,-3.579702377E0,4.832681549E0
1.725666662E1,1.293048382E0,7.318701744E-1,-4.984241486E0,5.200987527E0
1.727662619E1,7.710281610E-1,-1.307368279E0,-5.416234493E0,5.624881539E0
1.729656950E1,-1.618587822E-1,-2.770403624E0,-4.973092079E0,5.694995990E0
1.731650038E1,-2.668707967E-1,-4.119233131E0,-4.675959110E0,6.237298711E0
1.733645102E1,3.142151237E-2,-5.343251228E0,-4.924416542E0,7.266443372E0
1.735640803E1,1.082879305E-1,-6.302571297E0,-4.787353039E0,7.915357247E0
1.737635259E1,5.479930639E-1,-6.360624313E0,-4.920145988E0,8.060128696E0
1.739629684E1,1.759371161E-1,-6.103306770E0,-4.921937466E0,7.842625569E0
1.741626386E1,-6.588892937E-1,-5.765428543E0,-4.928379059E0,7.613358098E0
1.743622195E1,-1.055571079E0,-5.529838562E0,-4.716460228E0,7.344272728E0
1.745617456E1,-3.683240652E0,-4.622584343E0,-4.275303841E0,7.294708400E0
1.747612467E1,-4.756239891E0,-1.562648773E0,-1.019093990E0,5.109035296E0
1.749607599E1,-1.708720565E0,1.525002480E0,3.132311821E0,3.880301003E0
1.751601233E1,2.015147686E0,4.535398006E0,6.790641785E0,8.410913810E0
1.753595849E1,2.490742683E0,7.416080952E0,1.061754036E1,1.318841230E1
1.755590938E1,3.089370966E0,9.183544159E0,1.087303162E1,1.456380832E1
1.757586000E1,5.720332146E0,9.173976898E0,7.387715340E0,1.309436482E1
1.759581070E1,5.844843388E0,7.130016804E0,4.428129196E0,1.022778872E1
1.761577050E1,4.581925392E0,4.421582222E0,1.903811932E0,6.645970923E0
1.763572462E1,3.587050915E0,2.060534954E0,6.213088036E-1,4.183152303E0
1.765566832E1,1.990139604E0,-1.752567291E-1,-1.098170757E0,2.279769632E0
1.767562806E1,1.865155101E0,-1.404393196E0,-3.627573013E0,4.313978415E0
1.769558340E1,2.946379423E0,-2.603379726E0,-5.206887722E0,6.524600942E0
1.771551666E1,3.248145580E0,-3.526122093E0,-3.797385693E0,6.115891172E0
1.773547036E1,3.070299625E0,-4.255472660E0,-2.061663151E0,5.637928901E0
1.775544454E1,1.111325145E0,-4.343426704E0,-6.129837036E-2,4.483765895E0
1.777536855E1,-2.080859661E0,-4.510814667E0,1.564213753E0,5.208088954E0
1.779533681E1,-3.490832329E0,-5.091967583E0,4.203963280E-1,6.187954208E0
1.781527392E1,-3.036391735E0,-5.417009354E0,-2.437503338E0,6.671213355E0
1.783523986E1,-1.254000306E0,-5.993917465E0,-4.540313721E0,7.623254687E0
1.785518955E1,5.402493477E-2,-4.828470230E0,-3.981437922E0,6.258505523E0
1.787513984E1,-8.795674443E-1,-2.588942051E0,-1.315407276E0,3.034230732E0
1.789508017E1,-2.576696634E0,1.581376076E0,1.782166004E0,3.509448889E0
1.791503821E1,-3.634438038E0,3.996557236E0,1.363818645E0,5.571499878E0
1.793498234E1,2.070186138E0,6.648288727E0,-4.978575706E-1,6.980922274E0
1.795494296E1,4.017315865E0,7.666670799E0,9.444231987E-1,8.706813601E0
1.797488300E1,-4.090161324E0,1.011117363E1,5.698802948E0,1.230616134E1
1.799484243E1,-1.019146347E1,1.064157581E1,5.630437851E0,1.577374064E1
1.801479567E1,-5.499739647E0,6.618643761E0,-1.791834116E0,8.790008584E0
1.803474398E1,2.213657141E0,2.356146812E0,-6.897964478E0,7.617980026E0
1.805469633E1,5.068240166E0,-9.222221375E-2,-6.916970253E0,8.575549008E0
1.807463266E1,-2.624481201E0,-1.193403244E0,-2.571230173E0,3.863073580E0
1.809458021E1,-9.343523026E0,-1.763597488E0,2.288570881E0,9.780043727E0
1.811454892E1,-6.979143143E0,-3.135244370E0,2.074775219E0,7.927350659E0
1.813449946E1,-1.748414040E0,-4.048548698E0,-4.324212074E-1,4.431104413E0
1.815445010E1,-4.859247506E-1,-4.355632305E0,-2.250481129E0,4.926694729E0
1.817439362E1,-3.242363453E0,-3.481645584E0,-3.731570721E0,6.046436701E0
1.819433958E1,-5.558429241E0,-2.720502377E0,-4.325809002E0,7.550489542E0
1.821430233E1,-3.736091614E0,-3.616114616E0,-3.273988962E0,6.144401451E0
1.823425297E1,-3.558287024E-1,-4.914674282E0,-1.239082813E0,5.080941210E0
1.825420266E1,1.012611747E0,-5.728872299E0,-3.598375320E-1,5.828794337E0
1.827413645E1,-5.951058269E-1,-3.935247421E0,-4.912981987E-1,4.010199139E0
1.829409485E1,1.283591986E-1,-7.002391815E-1,-1.081017017E0,1.294375829E0
1.831403784E1,4.966656208E0,1.628239632E0,-8.158667088E-1,5.290035602E0
1.833398818E1,8.574308395E0,6.008831024E0,1.348638535E0,1.055668701E1
1.835393910E1,5.210980415E0,8.818287849E0,1.300977707E0,1.032516637E1
1.837388942E1,3.462439299E0,8.078962326E0,1.196384430E-2,8.789667872E0
1.839384551E1,8.015001297E0,6.974564552E0,-2.735132694E0,1.097113245E1
1.841379214E1,1.206066704E1,5.132267952E0,-5.923978329E0,1.438378889E1
1.843374276E1,8.085453033E0,2.466313362E0,-9.585371971E0,1.278032113E1
1.845369313E1,-7.856957912E-1,2.694168091E-1,-9.511791229E0,9.547988044E0
1.847364301E1,-3.625133753E0,-2.883584976E0,-2.797198534E0,5.411189950E0
1.849359434E1,-6.507619619E-1,-5.273575783E0,3.670675755E0,6.458169490E0
1.851354368E1,2.623640537E0,-6.050074577E0,5.847097874E0,8.813367438E0
1.853349616E1,3.444421291E-1,-6.480671406E0,2.847079277E0,7.086861270E0
1.855344635E1,-3.791623116E0,-5.690224648E0,-1.622550488E0,7.027640605E0
1.857339732E1,-2.827190876E0,-5.572860718E0,-4.655132294E0,7.792306558E0
1.859334767E1,-2.918127477E-1,-4.989940166E0,-5.221050739E0,7.228003069E0
1.861331561E1,6.228126884E-1,-4.086341381E0,-4.227796078E0,5.912727053E0
1.863324920E1,-1.732199311E0,-3.093271732E0,-1.054855347E0,3.698859860E0
1.865320008E1,-3.028019905E0,-2.041777611E0,1.798838615E0,4.071066288E0
1.867315064E1,-2.955286503E-1,-1.517802238E0,2.403409958E0,2.857873378E0
1.869311044E1,2.151888847E0,-5.034027100E-1,2.931477070E0,3.671184783E0
1.871307038E1,7.129063606E-1,1.096078873E0,1.951502800E0,2.349039709E0
1.873301907E1,-3.583318233E0,3.152287006E0,9.453215599E-1,4.865255983E0
1.875296792E1,1.703998804E0,2.532962322E0,1.443121910E0,3.376701186E0
1.877292247E1,8.869349480E0,6.058589458E0,3.788625240E0,1.138971236E1
1.879287288E1,2.429899454E0,6.507380009E0,2.181866646E0,7.280861762E0
1.881282310E1,-8.374105453E0,7.412375927E0,-1.704177856E-1,1.118472178E1
1.883277364E1,-3.070960760E0,6.482307434E0,2.136607170E-1,7.176124341E0
1.885273643E1,1.609475613E0,3.782796860E0,1.316541195E0,4.316624207E0
1.887267698E1,8.734366894E-1,9.331789017E-1,2.360210419E-1,1.299777075E0
1.889262715E1,-5.454605103E0,-6.522641182E-1,-8.966941833E-1,5.566167960E0
1.891257767E1,-1.073961449E1,2.620333672E0,3.026809692E-1,1.105880118E1
1.893251775E1,-7.142266273E0,1.709001064E0,-3.029429913E0,7.944186412E0
1.895246963E1,-2.871705294E0,-8.530015945E-1,-4.452455044E0,5.366438198E0
1.897243008E1,-1.560305476E0,-2.016729832E0,-1.771685123E0,3.104934874E0
1.899237973E1,-2.949146271E0,-2.569720745E0,1.701416969E0,4.265647446E0
1.901233138E1,-5.333299160E0,-2.362162113E0,2.158533573E0,6.219578520E0
1.903227263E1,-4.217083931E0,-2.115632057E0,-9.996242523E-1,4.822752796E0
1.905222298E1,-1.057433486E0,-3.350752354E0,-4.402244568E0,5.632536209E0
1.907218241E1,1.214917541E0,-4.216702461E0,-4.298306465E0,6.142641349E0
1.909213454E1,6.924604177E-1,-3.655480385E0,-2.405298948E0,4.430293591E0
1.911208474E1,-2.604907990E0,-2.181149006E0,-6.460380554E-2,3.398106866E0
1.913202942E1,-1.619298458E0,-6.257295609E-1,1.152659893E0,2.083816165E0
1.915199163E1,2.771083355E0,4.564990997E-1,2.087524414E0,3.499293153E0
1.917193711E1,6.274528027E0,2.349615097E0,-4.783153534E-2,6.700200065E0
1.919187812E1,5.712597847E0,6.555305481E0,-2.843498468E0,9.148294248E0
1.921182907E1,4.854174614E0,8.528448105E0,-2.916304350E0,1.023729795E1
1.923178911E1,4.076643944E0,6.177497864E0,1.650331020E0,7.583145665E0
1.925173914E1,5.906740665E0,2.554238319E0,3.651705742E0,7.399234657E0
1.927169046E1,6.729649544E0,1.356389999E0,8.499169350E-1,6.917393701E0
1.929163585E1,3.539847851E0,2.410812378E-1,-1.673950672E0,3.923105125E0
1.931158216E1,-1.320883155E0,-1.737595558E0,-3.397112608E0,4.037863879E0
1.933153312E1,-4.459042072E0,-3.636352539E0,-5.195087433E0,7.752099679E0
1.935149361E1,-4.319808483E0,-4.930090904E0,-2.523642778E0,7.023910202E0
1.937144411E1,-4.083599567E0,-4.694747448E0,-3.926038742E-1,6.234627241E0
1.939139327E1,-2.740914822E0,-3.801265478E0,-1.880249977E0,5.049512181E0
1.941134505E1,-1.524778843E0,-3.695986748E0,-3.606049299E0,5.384130395E0
1.943128690E1,-2.194798231E0,-3.215816498E0,-1.338376999E0,4.117021741E0
1.945124633E1,-5.383325577E0,-3.266960859E0,9.252390862E-1,6.364691264E0
1.947119777E1,-7.188926220E0,-2.239028931E0,1.359881878E0,7.651352133E0
1.949114938E1,-3.975283861E0,-2.075308800E0,-1.470118523E0,4.719219942E0
1.951108041E1,-1.330856204E0,-2.597427845E0,-5.344993591E0,6.089890486E0
1.953103170E1,1.365349293E0,-1.411201954E0,-6.448143005E0,6.740490922E0
1.955099006E1,-4.845100880E0,3.692261696E0,-5.253748894E0,8.044232493E0
1.957093270E1,-3.814255238E0,4.653223991E0,-3.909368515E0,7.175249035E0
1.959088326E1,7.902636528E0,7.833557129E-1,1.188705444E0,8.029840030E0
1.961084314E1,1.546308994E1,1.244002819E0,9.182748795E0,1.802713424E1
1.963080245E1,6.013775349E0,4.239130020E0,5.305583954E0,9.071104583E0
1.965075405E1,-1.280845547E1,5.863317490E0,-6.151383400E0,1.537122445E1
1.967069511E1,-7.685413361E-1,3.944754601E0,-1.131414890E1,1.200673603E1
1.969065281E1,1.126496887E1,5.750252724E0,-6.231444836E0,1.409949768E1
1.971060552E1,3.949984074E0,4.998154640E0,3.095745087E0,7.082906298E0
1.973055710E1,-1.548115826E1,5.903978348E0,1.021475410E1,1.946443995E1
1.975050780E1,-1.056103897E1,3.974283218E0,8.223408699E0,1.396262589E1
1.977044764E1,4.337272644E-1,1.319853783E0,6.575235367E0,6.720405752E0
1.979039969E1,2.534167051E0,1.202650547E0,3.251638412E0,4.294359480E0
1.981034740E1,-9.538149834E0,2.418873310E0,-1.732636929E0,9.991460407E0
1.983030962E1,-1.150067806E1,2.773756981E0,-4.140741348E0,1.253415584E1
1.985025173E1,-2.903831244E0,-1.338887215E0,-6.946163654E0,7.646832310E0
1.987019239E1,3.254904509E0,-4.975706100E0,-5.639369965E0,8.194787865E0
1.989016248E1,7.251762867E0,-3.893315077E0,-2.599359512E0,8.631490998E0
1.991011316E1,2.411733627E0,-3.172956467E0,-5.508580208E-1,4.023376242E0
1.993007820E1,-3.462732077E0,-1.235367298E0,2.099146843E0,4.233563896E0
1.995001448E1,-1.750139475E0,-1.101698875E0,4.354190826E-2,2.068483621E0
1.996996577E1,2.936133623E0,-2.043173313E0,-4.228953362E0,5.538906424E0
1.998991593E1,6.459837914E0,-8.885707855E-1,-6.916921616E0,9.505938594E0
2.000984818E1,6.450707436E0,1.677114010E0,-6.479041100E0,9.295284363E0
2.002980606E1,3.436599970E0,4.988140583E0,2.271711349E0,6.469346048E0
2.004976789E1,3.479177952E0,5.171983242E0,8.688173294E0,1.069291565E1
2.006971914E1,6.240495205E0,5.953775883E0,9.955646515E0,1.317217238E1
2.008965038E1,2.671983242E0,8.184612274E0,7.580508709E0,1.147133317E1
2.010962035E1,-1.313951492E0,1.080928802E1,4.120553493E0,1.164242832E1
2.012957115E1,-1.984083652E-1,9.400238991E0,8.253254890E-1,9.438486167E0
2.014950556E1,2.451978207E0,6.627592564E0,1.797821522E0,7.291731107E0
2.016947256E1,3.596204281E0,5.187741756E0,4.187773705E0,7.575143455E0
2.018940415E1,-5.333559513E-1,3.201545715E0,3.024709702E0,4.436578898E0
2.020937376E1,-3.951801062E0,2.110816002E0,-1.525419712E0,4.732777316E0
2.022932460E1,-2.838598251E0,9.107513428E-1,-7.562269211E0,8.128654480E0
2.024925636E1,-1.998981357E0,-6.996011734E-1,-1.035997772E1,1.057423788E1
2.026922613E1,-1.720034719E0,-2.215151310E0,-7.254847527E0,7.778060645E0
2.028917685E1,-3.987808228E0,-2.484430313E0,-2.041697502E0,5.122844633E0
2.030912692E1,-6.873350143E0,-6.699550152E-1,1.655194283E0,7.101510405E0
2.032907805E1,-4.622591496E0,-6.635861397E-1,-2.376228333E0,5.239767150E0
2.034902666E1,-2.550931692E0,-1.675460100E0,-6.552815437E0,7.228679631E0
2.036897966E1,-4.239186287E0,-1.742691278E0,-5.377057552E0,7.065438499E0
2.038891240E1,-8.428985596E0,-4.247016907E-1,-8.914318085E-1,8.486625971E0
2.040887854E1,-9.409770012E0,9.394288063E-1,9.767189026E-1,9.506854263E0
2.042881254E1,-6.866529465E0,1.352580547E0,4.860172272E-1,7.015334188E0
2.044878243E1,-4.816169262E0,1.137972832E0,3.394537926E0,6.001112918E0
2.046873124E1,-6.161869526E0,2.570215225E0,5.818412781E0,8.855990608E0
2.048866504E1,-6.760581970E0,5.162409306E0,7.945149422E0,1.163964509E1
2.050863423E1,-4.029512882E0,4.594216347E0,1.121188068E1,1.276910593E1
2.052855366E1,-1.998915792E0,3.196045876E0,1.388392448E1,1.438658169E1
2.054853600E1,-1.385061979E0,2.626247406E0,1.306739807E1,1.340046508E1
2.056848668E1,-1.274236202E0,2.219497204E0,8.298051834E0,8.683749765E0
2.058841877E1,2.215591669E-1,9.703264236E-1,1.000871181E0,1.411511585E0
2.060838752E1,5.244768858E-1,-6.698298454E-1,-4.570473671E0,4.648975974E0
2.062833845E1,-2.426121235E-1,-2.271424294E0,-6.886805058E0,7.255777895E0
2.064826968E1,-2.384058952E0,-3.342130423E0,-4.782799244E0,6.303073969E0
2.066823765E1,-3.949854851E0,-2.972894669E0,-1.867540359E0,5.284615695E0
2.068819391E1,-3.272851229E0,-3.183058739E0,-1.349011421E0,4.760593441E0
2.070814109E1,-1.854039788E0,-4.033984661E0,-3.163217545E0,5.451278842E0
2.072809031E1,9.877700359E-2,-4.999316692E0,-5.532629967E0,7.457406965E0
2.074803774E1,5.871468186E-1,-5.547347546E0,-7.150347710E0,9.068918268E0
2.076799257E1,-7.778188586E-1,-4.665171146E0,-6.026558876E0,7.660824752E0
2.078794215E1,-1.139091775E-1,-3.630817413E0,-4.935834885E0,6.128480758E0
2.080789434E1,1.188522577E-2,-2.889708519E0,-3.697233200E0,4.692556864E0
2.082784563E1,-1.432564974E0,-2.689485073E0,-3.441580772E0,4.596743475E0
2.084779579E1,-1.316152692E0,-2.459091663E0,-3.620877266E0,4.570573475E0
2.086774651E1,1.398296118E0,-2.358445644E0,-4.323062897E0,5.119215829E0
2.088769760E1,2.541887999E0,-2.357277870E0,-3.913612843E0,5.228223315E0
2.090762952E1,1.139987350E0,-2.013875008E0,-1.985404968E0,3.049114067E0
2.092756983E1,-1.659606099E0,-9.632701874E-1,1.603369713E0,2.500595188E0
2.094753060E1,-1.069098353E0,-3.583526611E-2,4.650589943E0,4.772027061E0
2.096748112E1,1.864775181E0,8.723936081E-1,4.934418678E0,5.346676049E0
2.098743237E1,1.704243064E0,2.106719017E0,6.705558777E0,7.232373604E0
2.100740165E1,-5.127076149E0,3.046685219E0,9.350951195E0,1.109096429E1
2.102733325E1,-3.570976734E0,4.607810020E0,1.296831417E1,1.421833184E1
2.104728422E1,7.936972380E-1,5.277974129E0,1.492117882E1,1.584703580E1
2.106723514E1,1.820731759E0,5.424562454E0,1.025412083E1,1.174256939E1
2.108718509E1,1.175394297E0,6.406996727E0,5.173913002E0,8.318685868E0
2.110713630E1,1.865027666E0,5.142348766E0,7.482070923E-1,5.521040924E0
2.112708922E1,1.261694431E0,2.283606052E0,-1.206283092E0,2.874343114E0
2.114703718E1,2.086288214E0,-5.164813995E-2,-1.717116833E0,2.702546255E0
2.116700711E1,4.498167932E-1,-7.746877670E-1,-1.793033600E0,2.004356698E0
2.118695746E1,-1.367592454E0,-1.377549648E0,-2.726683617E0,3.347051792E0
2.120690839E1,-5.492056608E-1,-2.613905907E0,-4.684219360E0,5.392220504E0
2.122685940E1,1.148480058E0,-3.695754528E0,-5.378357887E0,6.626035130E0
2.124679100E1,2.074151278E0,-3.633333921E0,-5.049767017E0,6.557695162E0
2.126676048E1,5.114982128E-1,-3.402174711E0,-5.746570587E0,6.697723248E0
2.128671075E1,-8.082203865E-1,-3.016219139E0,-6.559129715E0,7.264501408E0
2.130666229E1,9.302496910E-2,-3.186623335E0,-6.845905304E0,7.551797227E0
2.132661244E1,1.657578349E0,-4.081855774E0,-6.353537560E0,7.731529736E0
2.134655454E1,3.063784838E0,-4.639874458E0,-5.661602020E0,7.935297723E0
2.136651194E1,1.971266985E0,-4.753221512E0,-4.380713463E0,6.757933021E0
2.138646433E1,2.256146371E-1,-4.302152157E0,-2.753585815E0,5.112890571E0
2.140641531E1,3.871548176E-1,-4.019197464E0,-2.623847008E0,4.815434583E0
2.142636400E1,1.588235974E0,-4.126155853E0,-2.497663975E0,5.077989855E0
2.144631641E1,2.005632162E0,-3.380380869E0,-1.506736755E0,4.209488192E0
2.146626750E1,5.243419409E-1,-2.078849077E0,-5.666594505E-1,2.217577708E0
2.148620844E1,-1.134936690E0,-6.627302170E-1,1.055103302E0,1.685388860E0
2.150615949E1,-4.975384474E-1,1.035326958E0,3.350432396E0,3.541870079E0
2.152611922E1,9.882876873E-1,2.787045002E0,1.491414547E0,3.311895190E0
2.154606059E1,-4.101150930E-1,3.652293682E0,1.357810497E0,3.918047074E0
2.156601135E1,2.623192787E0,6.952268600E0,6.574824810E0,9.921869802E0
2.158597096E1,4.327400208E0,7.315689087E0,1.283305550E1,1.539262852E1
2.160592250E1,2.012342930E0,6.750294685E0,1.392761040E1,1.560750889E1
2.162588195E1,8.064311743E-1,7.530060291E0,1.064511013E1,1.306409235E1
2.164582332E1,2.073914051E0,7.028835773E0,4.650641918E0,8.679523148E0
2.166577922E1,1.612838149E0,5.052233696E0,-8.948307037E-1,5.378385836E0
2.168572309E1,4.180479646E-1,2.062567234E0,-4.541387558E0,5.005312043E0
2.170567534E1,-2.970880866E-1,-6.616444588E-1,-6.084912777E0,6.127984842E0
2.172562183E1,-2.071914673E0,-1.799916744E0,-4.972442627E0,5.679587694E0
2.174556515E1,-2.546555042E0,-2.423874855E0,-2.662515640E0,4.410113539E0
2.176552765E1,-1.216954470E0,-3.664549112E0,-7.645020485E-1,3.936287815E0
2.178547833E1,4.012658000E-1,-4.425217628E0,-1.001322746E0,4.554801043E0
2.180542865E1,1.280400276E0,-4.797795296E0,-3.370875835E0,6.001755449E0
2.182537864E1,1.091392636E0,-4.528542519E0,-6.051761150E0,7.636926623E0
2.184531376E1,-2.819519490E-2,-4.098931313E0,-6.795281410E0,7.935860528E0
2.186528104E1,-3.084572852E-1,-4.274730206E0,-6.377609730E0,7.683903311E0
2.188523158E1,1.461688429E-1,-4.888352871E0,-5.050795078E0,7.030497141E0
2.190518220E1,2.711612880E-1,-4.572689056E0,-2.642769814E0,5.288406749E0
2.192513606E1,-6.023451090E-1,-4.238231659E0,-1.432801247E0,4.514238212E0
2.194507303E1,1.467003822E-1,-3.529381752E0,-1.151255608E0,3.715298915E0
2.196502707E1,1.137242556E0,-2.509922981E0,-3.759565353E-1,2.781074850E0
2.198497439E1,1.096804023E0,-2.264261246E-2,8.099927902E-1,1.363664208E0
2.200491627E1,-9.485762715E-1,3.331338406E0,1.175880909E0,3.657910391E0
2.202486839E1,-2.116362572E0,5.534669399E0,5.089106083E0,7.810925465E0
2.204481899E1,-1.158303022E0,7.037848473E0,1.177222824E1,1.376438647E1
2.206476976E1,-3.704158366E-1,7.811692238E0,1.019703388E1,1.285065148E1
2.208472003E1,7.027833462E-1,1.203312397E1,1.098075581E1,1.630542778E1
2.210467047E1,7.328063250E-1,1.104519558E1,6.992728710E0,1.309318927E1
2.212462095E1,2.837961197E0,9.587530136E0,1.759050846E0,1.015229126E1
2.214457316E1,4.089359283E0,6.729772091E0,-1.303885937E0,7.982030461E0
2.216452325E1,3.716225147E0,2.878427505E0,-1.981015205E0,5.100989658E0
2.218447395E1,3.279288769E0,-1.096192360E0,-1.113378525E0,3.632490091E0
2.220441879E1,3.662082434E0,-3.824526548E0,4.122567177E-1,5.311102209E0
2.222437499E1,3.542753935E0,-4.032230377E0,1.345992088E0,5.533686110E0
2.224432571E1,1.872503757E0,-3.983287334E0,-1.760158539E-1,4.404977854E0
2.226427605E1,6.041516662E-1,-4.190040588E0,-3.465778351E0,5.471111308E0
2.228422634E1,5.814890265E-1,-4.913832664E0,-6.245440483E0,7.968024082E0
2.230417698E1,1.379176855E0,-5.556341171E0,-7.417068481E0,9.369522980E0
2.232412832E1,2.452066183E0,-5.604910374E0,-6.675080776E0,9.054521093E0
2.234407994E1,2.319934368E0,-4.922524452E0,-5.152167797E0,7.493875864E0
2.236403052E1,6.578971148E-1,-4.564743042E0,-4.820738316E0,6.671523481E0
2.238398580E1,-5.394459367E-1,-4.403646469E0,-5.420385838E0,7.004547578E0
2.240393164E1,-5.852773190E-1,-4.505963802E0,-6.062559605E0,7.576337393E0
2.242389947E1,5.158323646E-1,-4.623596191E0,-6.160053253E0,7.719454699E0
2.244385046E1,1.299203277E0,-4.230943680E0,-5.146088600E0,6.787565208E0
2.246380077E1,-1.135963202E-1,-3.362972736E0,-2.580673695E0,4.240562046E0
2.248374549E1,-1.372858286E0,-2.130537033E0,-1.215491295E-1,2.537459776E0
2.250368887E1,-1.455625057E0,-1.038051605E0,2.582893372E-1,1.806407713E0
2.252365300E1,4.109477997E-1,1.584436893E0,-4.163980484E-1,1.688995470E0
2.254360380E1,2.266680717E0,4.275825977E0,4.324808121E-1,4.858762077E0
2.256355439E1,2.242677689E0,3.961163998E0,5.383984566E0,7.050369723E0
2.258350322E1,3.621349335E0,4.746303558E0,1.161078167E1,1.305571980E1
2.260345575E1,4.409657478E0,5.510841846E0,1.521333504E1,1.677080856E1
2.262340631E1,6.305990219E0,5.519122601E0,1.164009380E1,1.434287317E1
2.264335998E1,8.569072723E0,6.323790073E0,7.478635788E0,1.301342851E1
2.266330771E1,7.380671501E0,6.033501148E0,4.176815510E0,1.040784491E1
2.268325850E1,5.181017876E0,5.708622456E0,-3.813719749E-1,7.718598393E0
2.270319651E1,2.764789104E0,4.074717522E0,-4.093667984E0,6.403553641E0
2.272315958E1,-2.488079071E-1,1.655807972E0,-4.942034721E0,5.217979743E0
2.274310098E1,-2.676664352E0,-5.688571930E-1,-4.616236687E0,5.366355533E0
2.276306076E1,-4.326898575E0,-2.347247124E0,-3.706881523E0,6.162190435E0
2.278300231E1,-5.107530117E0,-3.332844973E0,-3.410528183E0,6.987590571E0
2.280294825E1,-4.477485657E0,-4.489561081E0,-4.558312416E0,7.809113176E0
2.282291405E1,-2.222066402E0,-5.331678391E0,-6.342261314E0,8.578382839E0
2.284283708E1,-7.891196609E-1,-6.018852234E0,-7.622544289E0,9.744355981E0
2.286279533E1,-8.712141514E-1,-6.270084381E0,-7.740875244E0,9.999706085E0
2.288275393E1,-2.839957714E0,-6.024261475E0,-7.198393822E0,9.806832299E0
2.290269730E1,-4.993501663E0,-5.440729141E0,-6.193348885E0,9.638161799E0
2.292264730E1,-4.564101696E0,-4.697145939E0,-5.372422218E0,8.470957724E0
2.294259057E1,-3.910037518E0,-4.346505642E0,-5.256310463E0,7.861889364E0
2.296256500E1,-4.586692810E0,-2.894538164E0,-3.997753143E0,6.737813615E0
2.298251840E1,-4.868147850E0,-8.158521652E-1,-8.447456360E-1,5.007801258E0
2.300246894E1,-4.844955921E0,1.413112640E0,3.011620045E0,5.877103071E0
2.302241867E1,-4.115779400E0,2.892335892E0,5.749291420E0,7.639345444E0
2.304236091E1,-1.974471092E0,5.519265175E0,5.235085487E0,7.859194884E0
2.306230079E1,9.980239868E-1,7.361441612E0,5.247300625E0,9.095110683E0
2.308226734E1,4.445180893E0,9.072257996E0,1.046486664E1,1.454575306E1
2.310221298E1,4.554576874E0,7.114951611E0,1.988215446E1,2.160247146E1
2.312216341E1,4.252218246E0,5.357312202E0,2.462897873E1,2.556107876E1
2.314210807E1,5.448855400E0,5.198394775E0,1.855656052E1,2.002646428E1
2.316204840E1,6.841641426E0,4.789429188E0,7.779844284E0,1.141370520E1
2.318201568E1,6.878132343E0,2.924217701E0,-1.785421848E0,7.684236128E0
2.320195680E1,5.185931206E0,-4.165635109E-1,-8.143073082E0,9.663179955E0
2.322193709E1,3.015778542E0,-3.878071070E0,-1.006015205E1,1.119558014E1
2.324186789E1,1.269790411E0,-5.933734894E0,-8.295145988E0,1.027769548E1
2.326182578E1,-3.675485849E-1,-6.796799183E0,-4.918023109E0,8.397530732E0
2.328177758E1,-2.746596813E0,-6.797498703E0,-1.952792645E0,7.587040384E0
2.330171969E1,-1.775129557E0,-7.505531311E0,-1.787232399E0,7.916961845E0
2.332167957E1,7.797123194E-1,-9.600509644E0,-3.207048416E0,1.015198977E1
2.334162336E1,2.132188559E0,-1.082605553E1,-5.517994881E0,1.233685429E1
2.336158075E1,4.160933018E0,-1.042168045E1,-6.012300491E0,1.273077155E1
2.338153162E1,2.699423552E0,-1.009390068E1,-4.823791981E0,1.150837467E1
2.340147296E1,1.442021370E0,-8.951251984E0,-4.115284443E0,9.956902317E0
2.342143197E1,2.618577242E0,-7.130537987E0,-4.185734272E0,8.673055410E0
2.344138330E1,3.166670561E0,-4.633709908E0,-3.787665367E0,6.770928953E0
2.346134660E1,1.618726730E0,-2.069702625E0,-1.587373734E0,3.069804644E0
2.348128407E1,4.672226906E-1,-4.519343376E-1,-7.073493004E-1,9.606688924E-1
2.350122562E1,7.264318466E-1,1.481022835E-1,-4.008469582E-1,8.428023481E-1
2.352117663E1,2.241954565E0,6.060242653E-1,3.709950447E-1,2.351863730E0
2.354113598E1,3.237482071E0,1.927292347E0,1.555624485E0,4.076237663E0
2.356108747E1,2.779318810E0,4.843449593E0,1.264294624E0,5.725561798E0
2.358102874E1,2.111377716E0,6.739110947E0,1.589570045E0,7.238802742E0
2.360097834E1,4.404156685E0,6.028090954E0,4.640959263E0,8.790505078E0
2.362092330E1,4.606966972E0,1.708045006E0,1.328226471E1,1.416192495E1
2.364088642E1,2.657708645E0,-4.095659256E-1,2.128070259E1,2.144992919E1
2.366083034E1,1.398689508E0,1.333561897E0,1.847745705E1,1.857824369E1
2.368078225E1,3.524531126E-1,3.261189938E0,1.115019321E1,1.162266715E1
2.370073114E1,1.035860181E0,3.928104401E0,3.269626617E0,5.214735728E0
2.372067619E1,9.847345948E-1,2.262318611E0,-2.836929321E0,3.759781336E0
2.374064316E1,-1.604689956E0,5.298075676E-1,-6.232220650E0,6.457267235E0
2.376059405E1,-5.165256500E0,-3.150033951E-2,-5.086345673E0,7.249260603E0
2.378055098E1,-4.610472202E0,-8.627350330E-1,-2.293973923E0,5.221406135E0
2.380048762E1,-3.047227144E0,-1.781799078E0,-1.584277153E0,3.869151757E0
2.382042526E1,-1.204375744E0,-2.746561050E0,-2.486922741E0,3.896011198E0
2.384038640E1,5.992057323E-1,-3.780962706E0,-5.505338669E0,6.705481366E0
2.386034667E1,1.718791723E0,-4.043695450E0,-6.870573521E0,8.155396887E0
2.388029784E1,2.344008446E0,-3.128322363E0,-7.562941074E0,8.513451362E0
2.390023936E1,-9.414448142E-1,-3.435045004E0,-7.356927872E0,8.173753130E0
2.392019812E1,-9.682384729E-1,-3.239328861E0,-5.262386322E0,6.254873861E0
2.394014042E1,5.437080860E-1,-2.288496494E0,-1.944826126E0,3.052078529E0
2.396008217E1,1.140856147E-1,-1.825862646E0,-2.034482002E0,2.736038550E0
2.398005043E1,-1.422490597E0,-8.319787979E-1,-2.508986473E0,3.001779695E0
2.399999058E1,-1.384263635E0,-3.878364563E-1,-1.503146172E0,2.079916186E0
2.401995955E1,-1.023561716E0,-8.164339066E-1,6.636447906E-1,1.467878509E0
2.403990329E1,-9.691244960E-1,-8.353610039E-1,1.284817696E0,1.813225526E0
2.405984391E1,5.352021456E-1,8.850727081E-1,-5.370597839E-1,1.165430498E0
2.407980448E1,1.915927291E0,3.282221794E0,-3.336267471E-1,3.815109972E0
2.409975428E1,1.809709430E0,4.405263424E0,8.743544579E0,9.956453478E0
2.411970495E1,2.930702448E0,3.464169025E0,1.697567749E1,1.757165644E1
2.413965677E1,5.320214272E0,2.587557793E0,1.880369186E1,1.971240632E1
2.415959738E1,6.795957565E0,3.422282696E0,1.626507378E1,1.795688400E1
2.417954822E1,6.695520401E0,4.142591953E0,1.197757721E1,1.433364634E1
2.419950836E1,4.956121445E0,3.201750278E0,5.590950966E0,8.128534759E0
2.421945888E1,1.641511202E0,1.719507217E0,-2.687713623E0,3.588184585E0
2.423940855E1,-1.456823111E0,2.213950157E-1,-7.923897266E0,8.059745481E0
2.425934969E1,-3.268587112E0,-8.366489410E-1,-8.667840958E0,9.301349904E0
2.427929675E1,-2.421672106E0,-2.423292160E0,-7.608162403E0,8.343918494E0
2.429926074E1,-1.304366708E0,-4.275253773E0,-6.729944229E0,8.079066571E0
2.431921195E1,-1.958613992E-1,-5.279918671E0,-5.788250923E0,7.837075450E0
2.433916298E1,3.471630812E-1,-5.776985645E0,-5.428072929E0,7.934611590E0
2.435911339E1,-3.395660222E-1,-5.232554913E0,-4.945450783E0,7.207802678E0
2.437906249E1,-1.608525157E0,-4.346890450E0,-5.718972206E0,7.361348576E0
2.439899189E1,-1.741932511E0,-3.882498264E0,-7.590123653E0,8.701614719E0
2.441896516E1,-1.204694748E0,-3.778709888E0,-8.445666313E0,9.330552895E0
2.443890469E1,-4.829796255E-1,-3.599205017E0,-7.777014732E0,8.583094094E0
2.445886652E1,-3.295113146E-1,-2.869128704E0,-5.100915909E0,5.861725031E0
2.447881716E1,-3.471716046E-1,-1.280073166E0,-1.797310352E0,2.233705427E0
2.449875104E1,-6.828604639E-2,9.034733772E-1,1.560544968E-1,9.193911754E-1
2.451869977E1,4.101611376E-1,1.826437950E0,1.398434639E0,2.336605911E0
2.453865025E1,2.253568649E0,1.275562763E0,4.426108360E0,5.127969114E0
2.455860064E1,4.724278450E0,5.165405273E-1,5.678717613E0,7.404961494E0
2.457855177E1,6.123724461E0,1.734863281E0,3.514264107E0,7.270474818E0
2.459850201E1,5.448367119E0,2.965042114E0,5.048410416E0,7.997663829E0
2.461845326E1,7.433010578E0,4.250619411E0,9.509361267E0,1.279630272E1
2.463840309E1,9.680169106E0,2.362145424E0,1.098876762E1,1.483369202E1
2.465835576E1,9.501210213E0,4.607424736E-1,1.300746822E1,1.611457442E1
2.467830461E1,6.356757164E0,1.131038666E0,1.483562946E1,1.617972533E1
2.469825448E1,3.886402130E0,3.048851490E0,1.255093575E1,1.348798002E1
2.471819011E1,1.134299517E0,3.609131336E0,4.654537201E0,5.998098111E0
2.473815373E1,-3.211234570E0,2.556877613E0,-3.049263000E0,5.113477822E0
2.475811284E1,-5.631546974E0,1.298114777E0,-7.992199898E0,9.862792835E0
2.477805811E1,-4.282593727E0,-8.544397354E-1,-1.079134274E1,1.164146702E1
2.479800846E1,-2.501323223E0,-3.284757137E0,-9.890194893E0,1.071737852E1
2.481795914E1,-1.915035248E0,-5.031310558E0,-5.900022507E0,7.986971361E0
2.483794690E1,-3.404949427E0,-5.151057243E0,-1.642380714E0,6.389404177E0
2.485787927E1,-3.980852365E0,-4.681057453E0,-1.264190674E-1,6.146174926E0
2.487782946E1,-2.567416668E0,-4.928146839E0,-3.677865505E0,6.663704247E0
2.489776244E1,-1.936530590E0,-5.260770321E0,-7.438851357E0,9.314631748E0
2.491773115E1,-2.161302805E0,-5.206021786E0,-8.893378258E0,1.052929577E1
2.493768261E1,-2.142591000E0,-4.785601139E0,-8.341541290E0,9.852613133E0
2.495763235E1,-1.967481732E0,-4.447267056E0,-6.441922188E0,8.071401991E0
2.497758316E1,-1.768800378E0,-3.636939287E0,-4.642448425E0,6.156972433E0
2.499750336E1,-1.934674025E0,-1.857896566E0,-2.924795628E0,3.968522735E0
2.501748245E1,-1.237506509E0,-4.684162140E-1,-1.620995045E0,2.092477251E0
2.503743524E1,-1.675598025E-1,-4.695014954E-1,5.629191399E-1,7.519214717E-1
2.505736676E1,4.593265057E-1,-1.092463970E0,5.004645348E0,5.143047095E0
2.507733408E1,3.017028570E-1,9.846348763E-1,5.323904037E0,5.422590216E0
2.509728741E1,9.565376043E-1,4.121237755E0,-9.064950943E-1,4.326811549E0
2.511723777E1,6.882781982E0,5.941821098E0,1.839350224E0,9.276914090E0
2.513718873E1,7.597543240E0,5.877562046E0,1.470361328E1,1.756316152E1
2.515710589E1,6.050442696E0,5.987092018E0,1.956855774E1,2.133967150E1
2.517708937E1,7.355626106E0,6.720525265E0,1.561040306E1,1.851905448E1
2.519704086E1,8.365975380E0,5.901465416E0,7.523503780E0,1.270511500E1
2.521699081E1,5.104561806E0,3.626132965E0,1.553034306E0,6.451147732E0
2.523694174E1,3.371539116E-1,1.044000149E0,-2.253882408E0,2.506709991E0
2.525685865E1,-2.105374813E0,-1.028645515E0,-4.645347118E0,5.202880409E0
2.527684029E1,-2.856010914E0,-2.177356720E0,-5.220612526E0,6.336598123E0
2.529679354E1,-1.471927881E0,-3.421068192E0,-6.260995388E0,7.284939431E0
2.531674386E1,-5.557537079E-3,-4.744709015E0,-6.599077225E0,8.127737369E0
2.533669295E1,-1.563754678E-1,-5.595711708E0,-5.959484100E0,8.176300725E0
2.535662691E1,-1.044378877E0,-5.368688107E0,-4.617214680E0,7.157667960E0
2.537659574E1,-8.730415106E-1,-4.963619709E0,-4.807189941E0,6.964825714E0
2.539654475E1,6.504413486E-1,-4.886600971E0,-6.296661377E0,7.996867355E0
2.541649714E1,1.984442592E0,-4.967097759E0,-7.085197449E0,8.877505023E0
2.543644795E1,8.150714636E-1,-4.283127785E0,-6.255864143E0,7.625310570E0
2.545637157E1,-1.498741865E0,-3.320275784E0,-5.350423336E0,6.472826920E0
2.547634866E1,-1.558575511E0,-2.420666695E0,-3.750690460E0,4.728262239E0
2.549629987E1,1.045095682E0,-1.551514149E0,-5.065068245E0,5.399475666E0
2.551625003E1,1.774826527E0,-3.136692047E-1,-4.939455509E0,5.258005163E0
2.553620091E1,1.328754306E0,1.093903542E0,-1.733142853E0,2.442539071E0
2.555616649E1,2.896508932E0,1.059194088E0,4.000043869E0,5.050941206E0
2.557610191E1,2.672574043E0,1.013923168E0,8.371975899E0,8.846506240E0
2.559605292E1,7.052874565E-2,3.149872303E0,6.197221756E0,6.952138327E0
2.561598549E1,1.417633295E0,4.746274948E0,6.092113972E0,7.851793597E0
2.563595343E1,5.719683647E0,4.295009136E0,1.294695854E1,1.479140358E1
2.565588576E1,6.962784290E0,3.302018166E0,1.839370728E1,1.994272189E1
2.567585520E1,6.269342899E0,3.254306793E0,1.954659653E1,2.078375830E1
2.569580539E1,4.430006981E0,2.902348995E0,1.524340153E1,1.613722038E1
2.571573732E1,2.411339760E0,1.920324802E0,7.752902031E0,8.343242576E0
2.573570700E1,8.841772079E-1,1.207213879E0,4.406504631E-1,1.559906252E0
2.575563945E1,-7.257381678E-1,6.202497482E-1,-3.558843136E0,3.684666892E0
2.577558969E1,-2.485065937E0,-5.913167000E-1,-4.994534969E0,5.609865213E0
2.579554094E1,-3.534677982E0,-2.200733662E0,-6.647932053E0,7.844244875E0
2.581547653E1,-2.514632940E0,-3.726703644E0,-8.596765518E0,9.701344043E0
2.583544178E1,-1.861705661E0,-4.568295479E0,-8.492153168E0,9.820994704E0
2.585539286E1,-1.277763605E0,-4.892243385E0,-6.281282425E0,8.063574522E0
2.587534261E1,-1.694890141E0,-4.012964249E0,-5.192083359E0,6.777482147E0
2.589529411E1,-5.782762766E-1,-3.654804707E0,-5.937744141E0,6.996342357E0
2.591523173E1,2.706527710E-1,-3.592138290E0,-6.160129547E0,7.136098826E0
2.593519470E1,-5.686959624E-2,-3.259111404E0,-4.938290596E0,5.917073205E0
2.595514538E1,-1.148004532E0,-3.088799953E0,-3.631577969E0,4.903769785E0
2.597509651E1,-1.245269775E0,-2.858199120E0,-2.849750042E0,4.223869591E0
2.599504768E1,-5.566749573E-1,-2.702391863E0,-3.447036743E0,4.415299661E0
2.601499678E1,-6.357248425E-1,-2.647397041E0,-2.969419956E0,4.028686144E0
2.603494782E1,-9.523985386E-1,-2.499923468E0,-1.901957035E0,3.282395601E0
2.605489899E1,-1.824208260E0,-2.246714115E0,-1.460947514E0,3.241886446E0
2.607484894E1,-1.635722876E0,-1.810491085E0,1.693081856E-1,2.445839847E0
2.609480040E1,-6.732368469E-1,-1.061689854E0,1.984853268E0,2.349484133E0
2.611474953E1,-1.954547316E-1,6.731309891E-1,2.337931156E0,2.440743733E0
2.613470046E1,3.314306736E-1,3.056350708E0,5.762491226E0,6.531265656E0
2.615466835E1,-6.270917654E-1,3.669781685E0,1.297542763E1,1.349897269E1
2.617460211E1,-1.066335320E0,4.124801636E0,1.706182671E1,1.758570414E1
2.619455267E1,2.586536646E0,5.241841316E0,1.710646439E1,1.807756057E1
2.621450278E1,4.138220310E0,6.121876240E0,1.424129486E1,1.604421127E1
2.623445395E1,3.046657085E0,6.076988220E0,8.914933205E0,1.121106325E1
2.625442343E1,1.533623815E0,5.122590542E0,2.260338783E0,5.805348162E0
2.627435938E1,3.932428956E-1,2.643023491E0,-4.406217575E0,5.153151120E0
2.629432248E1,5.063271523E-1,-5.154514313E-2,-7.573647499E0,7.590728590E0
2.631427597E1,9.157996178E-1,-1.633015633E0,-7.059937477E0,7.303981529E0
2.633422555E1,6.956662536E-1,-2.090783596E0,-5.155084610E0,5.606266576E0
2.635417489E1,1.073355198E0,-2.538524151E0,-4.590378761E0,5.354229489E0
2.637412724E1,1.094794512E0,-3.293656826E0,-5.319961548E0,6.352065899E0
2.639407707E1,1.175347805E0,-3.889205456E0,-6.424840450E0,7.601706147E0
2.641402832E1,1.153689981E0,-4.035253048E0,-6.391906738E0,7.646616211E0
2.643397892E1,1.910021305E0,-4.239222527E0,-6.155910969E0,7.714559538E0
2.645392981E1,2.169335365E0,-3.988554716E0,-4.762647152E0,6.580075421E0
2.647387500E1,1.094286799E0,-3.560239315E0,-4.462737560E0,5.812812926E0
2.649383068E1,3.215530217E-1,-3.248124123E0,-4.316982269E0,5.412027584E0
2.651378141E1,4.772753119E-1,-2.840982914E0,-4.066940308E0,4.983871899E0
2.653373180E1,1.298136115E0,-2.160189629E0,-3.946305752E0,4.682403837E0
2.655368293E1,1.882072687E0,-1.166799068E0,-2.551759720E0,3.378623290E0
2.657361412E1,1.213609099E0,-5.680131912E-1,9.429712296E-1,1.638499549E0
2.659358348E1,1.501538515E0,2.172832489E-1,6.539152145E0,6.712848926E0
2.661353250E1,3.492786646E0,2.248051167E0,8.124992371E0,9.125173622E0
2.663348509E1,3.377592802E0,4.491487980E0,5.437007904E0,7.819376724E0
2.665341616E1,4.687993526E0,6.889974594E0,6.607195377E0,1.063503944E1
2.667336705E1,5.490253925E0,5.973035812E0,9.689612389E0,1.263758811E1
2.669331789E1,4.472502708E0,4.012938976E0,1.403441143E1,1.526668477E1
2.671328770E1,1.968113422E0,3.123028755E0,1.608639145E1,1.650450753E1
2.673323805E1,3.067082167E-1,2.712458611E0,1.169206047E1,1.200648907E1
2.675318898E1,-7.722276449E-1,2.176925182E0,1.322349072E0,2.661568307E0
2.677311146E1,-7.129433155E-1,3.935217857E-1,-7.212961674E0,7.258785275E0
2.679308953E1,-1.253713369E-1,-2.220676899E0,-1.066308594E1,1.089259040E1
2.681304090E1,-9.737381339E-1,-3.705036640E0,-9.750391960E0,1.047595370E1
2.683299085E1,-1.942487955E0,-4.865509033E0,-6.892776012E0,8.657759454E0
2.685294154E1,-1.323888063E0,-5.771792889E0,-4.253998280E0,7.291280691E0
2.687289368E1,-1.233911633E0,-5.885481358E0,-3.631628990E0,7.024966751E0
2.689284306E1,-2.626132011E0,-5.248159885E0,-4.229872704E0,7.234056581E0
2.691279354E1,-1.335684299E0,-5.087382793E0,-5.742032528E0,7.786941234E0
2.693272542E1,4.989918470E-1,-5.298142433E0,-6.822904587E0,8.652822262E0
2.695269470E1,-4.092018306E-1,-5.450490475E0,-6.092328072E0,8.184849045E0
2.697264547E1,-3.255318880E0,-4.495807648E0,-3.151090145E0,6.382691949E0
2.699259424E1,-2.079030991E0,-4.473139763E0,-2.501478195E0,5.530709029E0
2.701254667E1,-1.033375502E0,-4.786589146E0,-2.343169689E0,5.428604311E0
2.703246101E1,-1.697326899E0,-4.560709953E0,4.355492592E-1,4.885764734E0
2.705244783E1,-3.308025360E0,-4.221912384E0,2.902946949E0,6.098743883E0
2.707239924E1,-3.960019588E0,-3.625485659E0,4.743124485E0,7.164016421E0
2.709234899E1,-2.761409283E0,-3.358604908E0,6.093666077E0,7.485878332E0
2.711229959E1,2.707607746E-1,9.053258896E-1,4.838729858E0,4.930135191E0
2.713222919E1,-5.853791833E-1,5.060047150E0,1.462548256E0,5.299603131E0
2.715218215E1,-1.150451899E0,1.008395863E1,3.376898766E0,1.069641091E1
2.717215192E1,-1.537163734E0,1.137088776E1,9.633123398E0,1.498188997E1
2.719210187E1,-2.439203501E0,1.023015785E1,1.477165794E1,1.813305605E1
2.721205288E1,-3.640700817E0,9.950045586E0,1.540176582E1,1.869418359E1
2.723199286E1,-2.029190302E0,8.543057442E0,1.222525215E1,1.505185151E1
2.725195188E1,-8.476895094E-2,5.069803238E0,7.947584152E0,9.427310566E0
2.727190484E1,1.051903009E0,1.401183128E0,5.886178017E0,6.141409101E0
2.729185524E1,2.725396156E0,-1.270025730E0,4.613289833E0,5.506649857E0
2.731178623E1,2.549137354E0,-3.242584944E0,3.323807240E0,5.297183491E0
2.733174281E1,5.898211002E-1,-4.064511776E0,1.620471478E0,4.415209249E0
2.735170684E1,-5.578469038E-1,-4.477634430E0,-3.467136145E0,5.690468900E0
2.737165776E1,-3.861722350E-1,-5.268236160E0,-9.259587288E0,1.066036575E1
2.739160804E1,1.460980058E0,-6.993739128E0,-1.108234787E1,1.318579857E1
2.741155864E1,2.827102661E0,-7.895519257E0,-8.573040962E0,1.199286309E1
2.743152946E1,2.368645191E0,-7.982946396E0,-5.060820580E0,9.744219730E0
2.745146062E1,1.597294807E0,-7.445132256E0,-4.421140194E0,8.804988678E0
2.747141093E1,1.248329043E0,-6.586505890E0,-6.194567680E0,9.127598478E0
2.749136084E1,1.526418686E0,-5.902901649E0,-8.038517952E0,1.008920080E1
2.751131226E1,1.516210198E0,-4.524468422E0,-8.055451393E0,9.362692188E0
2.753126271E1,-7.753936052E-1,-2.544550419E0,-6.093070984E0,6.648419819E0
2.755120878E1,-2.911813259E0,-4.679627419E-1,-3.808602333E0,4.816959343E0
2.757116251E1,-1.868340254E0,3.992695808E-1,-2.743050575E0,3.342818864E0
2.759109073E1,6.142070293E-1,1.404213905E-1,1.648323536E0,1.764635634E0
2.761106450E1,1.907474399E0,1.125433445E0,5.076872349E0,5.538925154E0
2.763100595E1,1.243291020E0,4.186935425E0,3.811375141E0,5.796790602E0
2.765096565E1,-3.487849236E-2,5.803847790E0,-2.914090157E-1,5.811263623E0
2.767091657E1,4.927741051E0,6.385558128E0,3.121571541E-1,8.071891139E0
2.769086732E1,4.932722092E0,4.167057991E0,9.537925720E0,1.151816594E1
2.771080520E1,8.108879328E-1,4.136779308E0,1.727347565E1,1.778042303E1
2.773076807E1,-8.072046041E-1,4.603235245E0,1.476494980E1,1.548693309E1
2.775071865E1,1.094330549E0,4.473933220E0,7.767917156E0,9.030735006E0
2.777066872E1,1.646458030E0,3.580827713E0,2.563596249E0,4.701614284E0
2.779062022E1,1.316069365E-1,1.628799915E0,-8.897433281E-1,1.860632349E0
2.781057084E1,-1.882737160E0,-4.538574219E-1,-2.310615540E0,3.014901316E0
2.783052056E1,-2.654747248E0,-2.373418331E0,-2.288213730E0,4.232814619E0
2.785047196E1,-2.929232597E0,-3.915427446E0,-2.212809086E0,5.367261848E0
2.787041475E1,-2.598723173E0,-5.100589275E0,-2.484806538E0,6.240483684E0
2.789037859E1,-2.627509117E0,-5.706040382E0,-2.859963894E0,6.902325295E0
2.791032494E1,-2.303055048E0,-6.232226849E0,-4.065586567E0,7.789332974E0
2.793026545E1,-7.376990914E-1,-6.592926025E0,-5.995966911E0,8.942174944E0
2.795022417E1,2.166323662E-1,-6.576424599E0,-7.320865631E0,9.843341083E0
2.797017564E1,-1.492311954E0,-6.130079269E0,-5.360664845E0,8.278985107E0
2.799012610E1,-3.353816509E0,-5.529460907E0,-2.800638676E0,7.047453447E0
2.801007642E1,-3.124802589E0,-5.265124798E0,-2.122725010E0,6.480115109E0
2.803001792E1,-1.525947809E0,-4.754136086E0,-3.278543949E0,5.973204924E0
2.804997764E1,-1.732638359E0,-3.368299484E0,-3.713545322E0,5.304516562E0
2.806992859E1,-2.438862801E0,-2.005319595E0,-2.108761787E0,3.796871701E0
2.808987817E1,-1.542563319E0,-1.080928326E0,-3.176560402E-1,1.910186640E0
2.810981160E1,-9.424069524E-1,1.626367569E-1,1.694534779E0,1.945772262E0
2.812977060E1,-1.294543505E0,1.957638264E0,4.096550465E0,4.721219775E0
2.814973009E1,2.434505224E-1,2.776895523E0,4.881440163E0,5.621287661E0
2.816968163E1,3.300521851E0,2.509275436E0,5.357458591E0,6.774383386E0
2.818961449E1,5.209787369E0,3.971062183E0,1.191589928E1,1.359778934E1
2.820956436E1,3.692853212E0,5.591289520E0,1.932314301E1,2.045198130E1
2.822951504E1,2.481851339E0,7.054919720E0,1.567088223E1,1.736398652E1
2.824946540E1,3.525838137E0,8.846139908E0,8.682659149E0,1.288698164E1
2.826941598E1,3.791949987E0,9.010931015E0,4.496563911E0,1.076080153E1
2.828936623E1,2.338314772E0,7.073762417E0,1.447858334E0,7.589606344E0
2.830931736E1,-1.255998254E0,4.263242722E0,-1.251178741E0,4.617165620E0
2.832926839E1,-2.744271278E0,1.443092346E0,-2.550542831E0,4.014823670E0
2.834921907E1,-1.372524619E0,-1.358428478E0,-3.484402657E0,3.983743671E0
2.836916937E1,-7.690429688E-3,-3.541132450E0,-4.255320549E0,5.536012206E0
2.838912015E1,4.338115454E-1,-4.989500046E0,-4.503556728E0,6.735378710E0
2.840907014E1,7.001380920E-1,-5.417165279E0,-5.976681709E0,8.096702864E0
2.842902076E1,5.009070039E-1,-5.479342461E0,-7.557017326E0,9.347866735E0
2.844897102E1,-5.190408230E-1,-5.068755627E0,-8.019743919E0,9.501472492E0
2.846891470E1,-1.186021328E0,-4.615495682E0,-7.991607189E0,9.304581261E0
2.848888190E1,-8.112999201E-1,-4.415985107E0,-7.626173019E0,8.849725812E0
2.850884170E1,-2.894077301E-1,-4.565851688E0,-6.653165817E0,8.074365230E0
2.852879136E1,-2.895503640E-1,-4.768678665E0,-5.261844635E0,7.107119289E0
2.854874315E1,-9.433452487E-1,-4.724439144E0,-4.306910515E0,6.462174840E0
2.856869348E1,-2.032472372E0,-4.044462204E0,-3.847887516E0,5.940947466E0
2.858863499E1,-1.718648434E0,-3.401934624E0,-3.273421764E0,5.024161788E0
2.860859495E1,-1.038327813E0,-2.762645960E0,-1.466932774E0,3.295789603E0
2.862854514E1,-1.267295241E0,-1.693271637E0,-3.788185120E-1,2.148652957E0
2.864848777E1,-2.495238304E0,-8.597993851E-2,5.965762138E-1,2.567004075E0
2.866843611E1,-2.115449905E0,1.903798580E0,1.642611504E0,3.285992984E0
2.868839698E1,-3.501342535E-1,2.440939903E0,2.005803108E0,3.178683331E0
2.870835934E1,1.582488060E0,4.108007431E0,4.362373352E0,6.197603954E0
2.872829766E1,2.481998444E0,5.690141201E0,8.964614868E0,1.090423509E1
2.874822457E1,1.619520426E0,5.110554695E0,1.522937679E1,1.614541833E1
2.876819916E1,1.582693577E0,4.802916527E0,1.989304924E1,2.052574808E1
2.878814806E1,1.035349250E0,7.069598198E0,1.684326935E1,1.829608945E1
2.880811009E1,-3.569847345E-1,9.936310768E0,6.960855007E0,1.213718304E1
2.882805150E1,-2.314003468E0,1.053323269E1,-1.454051971E0,1.088199752E1
2.884800210E1,-2.186334133E0,7.915071011E0,-5.210371494E0,9.725038671E0
2.886795274E1,-5.015931726E-1,3.839454174E0,-5.968976498E0,7.114891742E0
2.888790277E1,7.680920362E-1,1.460013390E-1,-4.100350380E0,4.174225078E0
2.890783534E1,1.383258224E0,-2.175025225E0,-2.383548737E0,3.510760975E0
2.892780409E1,1.881201029E0,-3.498971462E0,-2.764661789E0,4.839945600E0
2.894775461E1,1.426322460E0,-4.292863846E0,-4.687658310E0,6.514385327E0
2.896768727E1,1.062687635E0,-4.535875320E0,-5.304788113E0,7.060045811E0
2.898763730E1,3.191151619E-1,-4.353672504E0,-5.425135612E0,6.963360911E0
2.900761158E1,-1.847624898E0,-3.714253902E0,-4.935734749E0,6.447548164E0
2.902755746E1,-2.321892977E0,-3.574663162E0,-5.336567402E0,6.829960128E0
2.904750615E1,-1.378743172E0,-3.818529844E0,-5.596197128E0,6.913720070E0
2.906745899E1,-1.015749097E0,-3.954076529E0,-4.899549484E0,6.377464431E0
2.908740886E1,-1.399469376E0,-3.875909328E0,-4.444272041E0,6.060754213E0
2.910735734E1,-1.907518029E0,-3.483369589E0,-4.374557495E0,5.908404353E0
2.912730994E1,-2.075119019E0,-2.556201458E0,-4.232021332E0,5.361929633E0
2.914726037E1,-2.946005583E0,-2.060826302E0,-1.618099689E0,3.942613416E0
2.916721102E1,-3.709664345E0,-1.195269108E0,3.783625126E0,5.431951480E0
2.918716149E1,-2.363317966E0,1.649679184E0,5.746531010E0,6.428789300E0
2.920711209E1,-5.941275358E-1,5.043435097E0,3.777144909E0,6.328984813E0
2.922706278E1,5.420840383E-1,5.998863697E0,5.269911289E0,8.003260945E0
2.924701358E1,3.128814936E0,7.390276909E0,5.199017048E0,9.562188764E0
2.926696410E1,2.997135878E0,7.942234993E0,3.170951366E0,9.061834953E0
2.928691482E1,8.282573223E-1,7.087139606E0,5.526558399E0,9.025320257E0
2.930686355E1,2.083974361E0,4.807245255E0,8.965449333E0,1.038421099E1
2.932681631E1,3.283232689E0,3.041698456E0,8.447911263E0,9.560269404E0
2.934676707E1,2.617143154E0,2.009875774E0,4.850243568E0,5.866336301E0
2.936671527E1,9.926382303E-1,1.050239086E0,1.138739586E0,1.839853429E0
2.938666774E1,-1.502668858E-2,-3.281841278E-1,-2.842685223E0,2.861606175E0
2.940659979E1,-1.688349247E-1,-2.097019196E0,-5.665808678E0,6.043788771E0
2.942656671E1,-1.958787441E-3,-3.436475039E0,-6.448346138E0,7.306882539E0
2.944651922E1,-1.487598896E0,-4.313842297E0,-5.926506996E0,7.479683884E0
2.946645204E1,-2.434058666E0,-4.766691208E0,-5.392976761E0,7.598038234E0
2.948640256E1,-1.728874683E0,-5.171017170E0,-5.478934288E0,7.729627881E0
2.950635341E1,-1.082480431E0,-5.535456657E0,-5.272389412E0,7.720824723E0
2.952630376E1,-1.541666031E0,-5.377671719E0,-4.602861881E0,7.244475465E0
2.954625367E1,-2.740850449E0,-4.959489346E0,-4.788258553E0,7.418639748E0
2.956620484E1,-2.443634033E0,-4.906945705E0,-5.269632339E0,7.603846950E0
2.958615463E1,-1.725794315E0,-5.061722755E0,-4.678787708E0,7.105663776E0
2.960610515E1,-9.125167131E-1,-5.058809757E0,-3.121743202E0,6.014110369E0
2.962605559E1,-1.737199545E0,-4.104141235E0,-1.393507004E0,4.669443148E0
2.964600810E1,-2.012601376E0,-2.270444393E0,-1.351928711E-1,3.037064232E0
2.966594206E1,3.286369443E-1,-1.230239868E-2,-3.024063110E-1,4.467697026E-1
2.968590808E1,1.367164969E0,1.822577477E0,-1.623499870E0,2.797620514E0
2.970585982E1,-8.847349882E-1,2.809253216E0,-1.436865330E0,3.277078212E0
2.972581034E1,-1.718384981E0,4.165987968E0,3.010068417E0,5.419300192E0
2.974576086E1,-2.818801403E-1,3.619167328E0,9.762411118E0,1.041549324E1
2.976571101E1,8.734780550E-1,3.870647430E0,1.518769741E1,1.569748477E1
2.978566291E1,8.542257547E-1,5.219521523E0,1.340958786E1,1.441492814E1
2.980561181E1,2.604322910E0,6.755705833E0,8.390530586E0,1.108255668E1
2.982556212E1,2.278390884E0,7.970400333E0,5.498106956E0,9.947237134E0
2.984551272E1,4.478031397E-2,7.577049732E0,5.222623348E0,9.202688877E0
2.986548163E1,-5.637389421E-1,5.806610107E0,4.827394009E0,7.572202814E0
2.988543240E1,5.898619890E-1,3.315254211E0,2.273179054E0,4.062781149E0
2.990536469E1,1.977582455E0,3.688044548E-1,1.547765732E-1,2.017623572E0
2.992533352E1,2.469626904E0,-1.872130871E0,-9.628286362E-1,3.245145609E0
2.994526617E1,1.895926476E0,-2.930842876E0,-1.842095375E0,3.946858566E0
2.996523464E1,8.051861525E-1,-3.299778938E0,-3.169832706E0,4.645934262E0
2.998518577E1,1.665143967E-1,-3.763307095E0,-3.908790112E0,5.428521665E0
3.000513401E1,7.021859288E-1,-4.469822407E0,-3.998537540E0,6.038267954E0
3.002506768E1,1.074668169E0,-5.046180725E0,-4.080121994E0,6.577708345E0
3.004503712E1,1.044306040E0,-5.140007019E0,-4.779442787E0,7.096007372E0
3.006498577E1,1.137592196E-1,-4.918556690E0,-5.480785370E0,7.365062752E0
3.008494125E1,-7.467192411E-1,-4.682916641E0,-6.400020123E0,7.965397383E0
3.010486943E1,-8.253889084E-1,-4.779847145E0,-7.211117744E0,8.690709103E0
3.012483969E1,-4.873473644E-1,-4.701093674E0,-7.530634403E0,8.890907923E0
3.014479002E1,-8.291119337E-2,-4.475070953E0,-6.327518463E0,7.750524125E0
3.016474520E1,7.262297869E-1,-3.256974936E0,-4.049991608E0,5.247640180E0
3.018467554E1,3.611525893E-1,-1.133511066E0,-9.243631363E-1,1.506560898E0
3.020464209E1,1.636736393E-1,2.628195763E0,-4.445343018E-1,2.670545407E0
3.022459261E1,-1.331881523E0,7.518435001E0,-1.288557053E0,7.743458694E0
3.024454303E1,-5.174170732E-1,9.168806076E0,-1.024091721E0,9.240318671E0
3.026449619E1,2.761255741E0,8.614053726E0,2.958469391E0,9.517299827E0
3.028444403E1,1.956980586E0,6.974434853E0,1.023302078E1,1.253743310E1
3.030438527E1,-5.606752634E-1,6.304776669E0,1.544793701E1,1.669440995E1
3.032433505E1,6.141270399E-1,5.494303226E0,1.200034523E1,1.321260026E1
3.034428645E1,1.994017482E0,5.103395462E0,3.959636211E0,6.760138304E0
3.036424635E1,1.342106342E0,4.630678177E0,-1.746822834E0,5.127944990E0
3.038419508E1,7.071661949E-2,3.500297070E0,-3.077730656E0,4.661491865E0
3.040413839E1,-1.803698421E0,2.334822655E0,-1.837004185E0,3.475530060E0
3.042408549E1,-2.572859764E0,6.929574013E-1,-9.303212166E-1,2.822285402E0
3.044404907E1,-2.020719051E0,-1.174217701E0,4.558262825E-1,2.381148944E0
3.046399937E1,-1.690503716E0,-2.398770332E0,4.588708878E-1,2.970263358E0
3.048394039E1,-9.326440096E-1,-3.266816854E0,-1.916454315E0,3.900604357E0
3.050390094E1,-4.434411228E-1,-4.090363503E0,-4.575896740E0,6.153579819E0
3.052385113E1,-1.704491079E-1,-4.700297832E0,-6.854878426E0,8.313315274E0
3.054379357E1,-6.077888012E-1,-5.107330799E0,-7.681864738E0,9.244743424E0
3.056373368E1,-3.883869946E-1,-5.390315533E0,-6.905675888E0,8.768962622E0
3.058369240E1,-6.104754210E-1,-5.637024879E0,-6.058766365E0,8.298034683E0
3.060365335E1,-2.407875359E-1,-5.694696903E0,-4.867166519E0,7.495122506E0
3.062360837E1,3.628343344E-2,-5.562789440E0,-3.910696507E0,6.799962501E0
3.064355246E1,-7.609862089E-1,-4.932359695E0,-3.786475658E0,6.264556655E0
3.066350507E1,-2.642559052E0,-3.378722906E0,-4.313983440E0,6.083530220E0
3.068344609E1,-2.820990324E0,-1.685209751E0,-4.250352859E0,5.372468496E0
3.070340733E1,-9.802423716E-1,-8.626441956E-1,-2.654020309E0,2.957846162E0
3.072335244E1,1.485233068E0,4.097332954E-1,6.066069603E-1,1.655829292E0
3.074330031E1,3.979476094E-1,2.592655659E0,8.943352699E-1,2.771292341E0
3.076325787E1,-2.411291599E0,4.668795586E0,1.519430161E0,5.469976911E0
3.078320860E1,2.345303893E-1,4.988844395E0,4.366220951E0,6.633811747E0
3.080314109E1,1.539606214E0,3.631218433E0,9.142009735E0,9.956529345E0
3.082310046E1,1.531494617E0,3.047853470E0,1.547257233E1,1.584409609E1
3.084305802E1,2.579481363E0,3.475509644E0,1.668395424E1,1.723621828E1
3.086301094E1,2.213629484E0,4.787824154E0,9.210461617E0,1.061395397E1
3.088296215E1,6.312948465E-1,5.766020298E0,1.175606728E0,5.918409790E0
3.090291006E1,-6.010293961E-1,5.121232510E0,-5.023826599E0,7.199103587E0
3.092285332E1,5.245639086E-1,3.161504269E0,-5.741107464E0,6.574997448E0
3.094280469E1,2.047089815E0,4.515714645E-1,-2.159321785E0,3.009512264E0
3.096276182E1,3.298272371E0,-1.024909496E0,8.282260895E-1,3.551759925E0
3.098271538E1,1.207814097E0,-1.128348827E0,1.365230560E0,2.143791140E0
3.100266490E1,-5.240640640E-1,-1.558053970E0,-1.796295643E0,2.434923686E0
3.102260577E1,1.141837835E0,-2.138319492E0,-6.546343803E0,6.980746456E0
3.104256604E1,5.556282043E0,-1.854939222E0,-9.227355957E0,1.092964627E1
3.106251664E1,2.595585346E0,-2.927365065E0,-8.441198349E0,9.303781977E0
3.108246712E1,1.990717411E0,-1.454650402E0,-5.062794685E0,5.631239085E0
3.110241560E1,2.016276121E0,-3.275844336E0,-2.875799179E0,4.802785278E0
3.112236999E1,1.426334262E0,-3.929038763E0,-4.406015396E0,6.073281378E0
3.114230982E1,5.273591876E-1,-3.215026855E0,-7.454185486E0,8.135071398E0
3.116226024E1,-4.124510288E-2,-2.443568945E0,-3.358736992E0,4.153774732E0
3.118221166E1,-5.950862169E-1,-2.350662231E0,-1.551927567E0,2.878926832E0
3.120216140E1,-1.668071985E0,1.250008106E0,3.527791023E0,4.097596114E0
3.122209038E1,4.886630535E0,-1.454498768E-1,1.830595970E0,5.220286894E0
3.124205884E1,8.075018883E0,-2.668995857E0,2.236607552E0,8.793854797E0
3.126203217E1,8.349460602E0,-5.543477058E0,-1.603274345E0,1.014958713E1
3.128196267E1,2.579889297E0,-6.825139523E0,-3.041906357E-1,7.302800164E0
3.130192444E1,-2.895710707E0,2.684559345E0,3.607890606E0,5.348726390E0
3.132186633E1,-5.589219093E0,6.142127991E0,6.568356514E0,1.058812607E1
3.134182389E1,-2.684584141E0,1.841779232E0,8.868868828E0,9.447538147E0
3.136177530E1,-8.474531174E-1,4.136061668E-1,8.968389511E0,9.017829965E0
3.138172582E1,2.025809765E0,4.964430332E-1,7.765354156E0,8.040589908E0
3.140165769E1,1.874077320E-1,2.738727570E0,7.722433090E0,8.195835723E0
3.142161738E1,-2.927742958E0,2.407006502E0,6.413884163E0,7.450051623E0
3.144157750E1,-6.394528866E0,-1.699624062E-1,3.916022301E0,7.500274481E0
3.146152827E1,-5.230155945E0,-1.254448533E0,4.850397110E0,7.242549582E0
3.148147797E1,-2.285843611E0,1.199290752E-1,2.269991875E0,3.223713248E0
3.150142058E1,2.485165358E0,2.500730991E0,-1.208924294E0,3.727090057E0
3.152137032E1,4.101516724E0,3.205877304E0,-6.489891529E0,8.319782496E0
3.154132939E1,2.352259874E0,3.326888561E0,-6.649280071E0,7.798348510E0
3.156127159E1,5.656311512E-1,-3.023440838E-1,-5.859210014E0,5.894208389E0
3.158121264E1,-2.064005852E0,-2.088078499E0,-3.830105782E0,4.825961280E0
3.160116327E1,-2.315821350E-1,1.799068451E0,-9.825897217E-2,1.816571607E0
3.162111460E1,2.243209600E0,2.767049551E0,9.554519653E-1,3.688013149E0
3.164106414E1,1.614814162E0,2.509345770E0,-4.678754807E-1,3.020488112E0
3.166103187E1,1.018691659E0,2.228294134E0,-3.083895683E0,3.938710453E0
3.168098406E1,1.705420494E0,2.094638348E0,-2.921249866E0,3.978651738E0
3.170093499E1,2.974690914E0,2.277120113E0,-1.773394585E0,4.144754564E0
3.172088530E1,3.527688980E0,1.434872031E0,5.542402267E-1,3.848458070E0
3.174083607E1,4.976785660E0,3.900331259E-1,3.046857834E0,5.848406963E0
3.176078634E1,6.000043869E0,-1.175516844E-2,1.210662842E0,6.120977792E0
3.178073694E1,4.989119530E0,-1.718647718E0,1.665935516E-1,5.279471287E0
3.180066875E1,3.171379805E0,-1.894538403E0,4.170806885E0,5.571584666E0
3.182063851E1,1.236814260E0,-5.118093014E0,9.857987404E0,1.117606824E1
3.184057092E1,-2.551447868E0,-1.062113953E1,1.639065742E1,1.969700845E1
3.186053784E1,-5.492675304E0,-1.192526436E1,1.574943066E1,2.050429170E1
3.188049003E1,-3.718388796E0,-9.271822929E0,1.169138241E1,1.537795625E1
3.190042289E1,-2.104264259E0,-6.341188431E0,6.800223351E0,9.533186057E0
3.192037142E1,-1.698199272E0,-5.660120010E0,1.954914093E0,6.224349638E0
3.194032350E1,-1.354656219E-1,-4.319902897E0,-1.916886330E0,4.728040310E0
3.196027347E1,-2.951688766E-1,-2.750301838E0,-8.224694252E0,8.677377507E0
3.198022556E1,3.924003124E0,-1.546582103E0,-1.027824306E1,1.110999537E1
3.200017516E1,6.457316399E0,-4.353659153E-1,-7.628170013E0,1.000377210E1
3.202012602E1,3.454967260E0,-2.099091768E0,-5.502249241E0,6.827717901E0
3.204007577E1,-6.485595703E-1,-4.089621544E0,-2.914423943E0,5.063546268E0
3.206002700E1,-2.775368690E-1,-4.579523563E0,-1.707609177E0,4.895405181E0
3.207997697E1,1.060953140E0,-1.479378223E0,-2.688376904E0,3.246775611E0
3.209992875E1,2.518670559E0,1.731927395E-1,-5.488803387E0,6.041577586E0
3.211987937E1,3.790498018E0,-2.057320118E0,-6.888613701E0,8.127326745E0
3.213982839E1,5.084077120E-1,-2.148524284E0,-7.084906578E0,7.420952514E0
3.215981062E1,1.419314295E-1,-1.200730324E0,-5.549931049E0,5.680108493E0
3.217973917E1,2.896740198E0,-1.612113118E0,-3.963606358E0,5.167222449E0
3.219969940E1,3.576058388E0,-2.249681711E0,-4.538215160E0,6.200375653E0
3.221964971E1,3.948885918E0,-3.258413315E0,-4.343141556E0,6.713705080E0
3.223959903E1,1.426902056E0,-3.410261631E0,-3.395094872E0,5.019223352E0
3.225954147E1,2.090506792E0,-1.902354717E0,-1.905451298E0,3.408799901E0
3.227949053E1,3.082103014E0,-1.460901618E0,1.255623817E0,3.634581640E0
3.229945085E1,3.884342194E0,-1.836222291E0,9.012794495E-2,4.297435238E0
3.231939325E1,3.486501932E0,-9.922785759E-1,8.633995056E-2,3.625984981E0
3.233934542E1,2.162405491E0,5.323293209E-1,8.492028236E0,8.779175108E0
3.235930359E1,-7.391057909E-3,-1.760174751E0,1.692184448E1,1.701314464E1
3.237925319E1,3.929151297E-1,-2.360067129E0,1.556412697E1,1.574694724E1
3.239920467E1,-5.215023160E-1,9.467377663E-1,6.926774025E0,7.010597368E0
3.241914343E1,-3.155909061E0,3.170537472E0,3.802939415E0,5.871491979E0
3.243910518E1,-1.639245510E0,2.264377117E0,7.259557724E0,7.779184271E0
3.245905661E1,-1.626724601E-1,3.833537102E-1,8.267031670E0,8.277513819E0
3.247898909E1,-2.381255627E0,-1.256706953E0,2.458580971E0,3.646136464E0
3.249895710E1,-4.822000027E0,-1.654285908E0,-2.677061081E0,5.758038047E0
3.251889021E1,-5.251994610E0,-2.230605602E0,-3.788144112E0,6.849020700E0
3.253885859E1,-3.840543985E0,-2.305793762E0,-3.983785629E0,5.994748612E0
3.255880848E1,-2.969847918E0,-1.759361982E0,-6.372457504E0,7.247314391E0
3.257875060E1,-2.651219130E0,-2.239645243E0,-7.565801620E0,8.323840931E0
3.259871007E1,-3.619261742E0,-1.744423151E0,-6.401975155E0,7.558263926E0
3.261866008E1,-5.076099396E0,-8.509480953E-1,-5.693014145E0,7.674718743E0
3.263861153E1,-4.088116646E0,1.160189867E0,-2.922926903E0,5.157735929E0
3.265856185E1,-2.258351803E0,3.881268024E0,-1.907174587E0,4.878699545E0
3.267851263E1,-3.218096495E0,5.083703518E0,-3.248092175E0,6.837418320E0
3.269845300E1,-4.631177902E0,6.142928600E0,-3.895000935E0,8.622900488E0
3.271841090E1,-1.065082550E0,7.755023479E0,-2.443966866E0,8.200473404E0
3.273836533E1,2.083001614E0,8.849297523E0,-2.331822395E0,9.385433291E0
3.275831424E1,2.531375885E0,8.440783501E0,-3.862214088E0,9.621402582E0
3.277826535E1,2.274654388E0,7.441619873E0,-2.825897217E0,8.278735048E0
3.279820635E1,3.677306890E0,5.532932281E0,2.222802162E0,7.005481786E0
3.281817856E1,6.817548752E0,2.313348055E0,7.850209236E0,1.065158839E1
3.283810790E1,7.690266132E0,-1.391066074E0,1.098927402E1,1.348478408E1
3.285806786E1,4.087881565E0,-2.341629028E0,9.944018364E0,1.100352232E1
3.287802592E1,4.986808777E0,-3.232446671E0,1.440653992E1,1.558413827E1
3.289795974E1,8.974609375E0,-3.885892868E0,2.077203751E1,2.295912278E1
3.291791467E1,5.454647541E0,-3.810020447E0,1.572679424E1,1.707634307E1
3.293786629E1,1.779336929E0,-2.489272594E0,7.431988716E0,8.037224287E0
3.295781931E1,9.737561941E-1,-1.898194075E0,2.847607613E0,3.558119024E0
3.297775209E1,1.123546243E0,-2.391736507E0,-1.391520500E0,2.986484385E0
3.299772074E1,2.657830119E-1,-3.208105087E0,-2.868936539E0,4.312003679E0
3.301767128E1,-5.505481958E-1,-4.484260559E0,-9.842033386E-1,4.623889303E0
3.303762269E1,-2.693902731E0,-4.689834595E0,-2.399972916E0,5.917054203E0
3.305757350E1,-3.417387247E0,-3.584362984E0,-5.619468689E0,7.490301859E0
3.307750056E1,-3.234658241E0,-2.421593189E0,-8.168030739E0,9.112840044E0
3.309746782E1,-3.099359512E0,-2.080623627E0,-9.796755791E0,1.048386608E1
3.311742509E1,-3.094847202E0,-2.731299877E0,-8.876693726E0,9.789472392E0
3.313735635E1,-2.081037045E0,-3.225944757E0,-8.116470337E0,8.978559210E0
3.315730750E1,-1.235694408E0,-2.695591211E0,-7.290342331E0,7.870339507E0
3.317725393E1,-1.745148182E0,-2.357138634E0,-6.224014282E0,6.880406856E0
3.319720886E1,-2.248322487E0,-2.779987097E0,-5.457196712E0,6.524130457E0
3.321715954E1,-2.780442715E0,-2.949841738E0,-6.466310978E0,7.631880871E0
3.323711674E1,-3.102832079E0,-2.512459040E0,-7.496603966E0,8.493473280E0
3.325705973E1,-2.681978941E0,-1.133620024E0,-7.949784756E0,8.466237834E0
