"Time (s)","Linear Acceleration x (m/s^2)","Linear Acceleration y (m/s^2)","Linear Acceleration z (m/s^2)","Absolute acceleration (m/s^2)"
6.748833344E-3,-3.197459248E-1,1.578689754E-1,-5.134872758E-1,6.251633804E-1
1.673083333E-2,-2.926241997E-1,1.498734927E-1,-3.462066221E-1,4.774411076E-1
2.671183334E-2,-2.851298234E-1,1.909528139E-1,-6.050640285E-2,3.484580579E-1
3.669383333E-2,-2.270111310E-1,2.284875530E-1,1.461686969E-1,3.537031290E-1
4.667483334E-2,-1.648678002E-1,2.139241853E-1,2.610366637E-1,3.756129502E-1
5.665683333E-2,-1.467835316E-1,2.283565754E-1,3.101842654E-1,4.121970514E-1
6.663783334E-2,-1.966480020E-1,1.873222777E-1,3.432958782E-1,4.377352309E-1
7.662016668E-2,-2.948870721E-1,1.630554557E-1,2.688596535E-1,4.310811759E-1
8.660116667E-2,-2.984518272E-1,9.695180565E-2,1.593126529E-1,3.519284972E-1
9.658216668E-2,-3.413274130E-1,2.569520912E-1,-2.285325766E-2,4.278446580E-1
1.065641667E-1,-2.232963949E-1,2.771799490E-1,-3.435940862E-1,4.947190113E-1
1.165451667E-1,4.516535550E-2,8.336843133E-2,-5.948319858E-1,6.023415111E-1
1.265271667E-1,9.826538265E-3,1.083342880E-2,-7.042433310E-1,7.043951968E-1
1.365081667E-1,-3.152672499E-2,-2.460069805E-2,-7.636574739E-1,7.647037768E-1
1.464901667E-1,-2.097250074E-2,-3.987187117E-2,-7.424887991E-1,7.438543061E-1
1.564711667E-1,-1.442671824E-1,-9.332331598E-2,-5.954091060E-1,6.197049820E-1
1.664531667E-1,-2.546471187E-1,-2.050943050E-1,-6.119140416E-1,6.937922048E-1
1.764341667E-1,-4.085209841E-1,-2.225804034E-1,-8.258888054E-1,9.479049263E-1
1.864161667E-1,-6.443938628E-1,-2.383810419E-1,-9.389628464E-1,1.163494821E0
1.963971667E-1,-6.995094252E-1,-4.043656603E-1,-8.385831106E-1,1.164494163E0
2.063791667E-1,-7.062986273E-1,-4.798698789E-1,-6.961753428E-1,1.101722723E0
2.163601667E-1,-7.369576254E-1,-4.908413020E-1,-3.595160544E-1,9.556586832E-1
2.263411667E-1,-7.343906978E-1,-5.821742257E-1,1.377171314E-1,9.472183140E-1
2.363231667E-1,-7.393681401E-1,-6.324886394E-1,4.071211606E-1,1.054729712E0
2.463041667E-1,-8.332416791E-1,-5.179364222E-1,5.858033001E-1,1.142679019E0
2.562861667E-1,-9.448281884E-1,-4.767600372E-1,7.898857445E-1,1.320575605E0
2.662671667E-1,-1.081983841E0,-6.305154964E-1,7.096999526E-1,1.439414063E0
2.762491667E-1,-1.273216590E0,-7.236625189E-1,4.380447453E-1,1.528610848E0
2.862301667E-1,-1.520967357E0,-3.718589419E-1,2.029404831E-1,1.578862126E0
2.962121667E-1,-1.686319014E0,4.900259078E-3,3.238538861E-2,1.686637081E0
3.061931667E-1,-1.729996253E0,2.257902324E-2,-2.737338924E-1,1.751664092E0
3.161751667E-1,-1.902055398E0,-1.084854385E-1,-5.390214819E-1,1.979931308E0
3.261561667E-1,-2.055130387E0,-8.556552261E-2,-4.523593140E-1,2.106065364E0
3.361381667E-1,-1.038521779E0,1.711570653E-1,-3.892011988E-1,1.122185279E0
3.461191667E-1,-6.776580879E-1,-2.281829131E-1,-2.413730621E-2,7.154512810E-1
3.561011667E-1,-7.775590830E-1,-3.935974279E-1,3.239205444E-1,9.297535059E-1
3.660821667E-1,-9.464377807E-1,-1.952701056E-1,5.846373653E-1,1.129458160E0
3.760641667E-1,-1.164920017E0,-7.431255609E-2,8.619573551E-1,1.451044963E0
3.860451667E-1,-1.224304193E0,-4.811293691E-2,1.064727100E0,1.623231163E0
3.960261667E-1,-1.095900799E0,-4.625732303E-2,1.056176131E0,1.522710190E0
4.060081667E-1,-1.070764350E0,4.434294462E-2,9.737070018E-1,1.447966821E0
4.159891667E-1,-1.068942211E0,1.824763978E-1,6.244937414E-1,1.251370257E0
4.259711667E-1,-1.241344441E0,1.495419556E-1,-9.133058488E-1,1.548362487E0
4.359521667E-1,-1.207773529E0,2.349300152E-1,-1.263214343E0,1.763411321E0
4.459341667E-1,-9.248782195E-1,4.433619109E-1,-8.084670264E-1,1.305981791E0
4.559151667E-1,-1.092278887E-1,4.729725033E-1,-1.918038762E-1,5.219410383E-1
4.658971667E-1,3.326805505E-1,4.904931003E-1,6.951988578E-2,5.967351545E-1
4.758781667E-1,3.806987625E-1,5.699851200E-1,-5.976673007E-2,6.880309926E-1
4.858601667E-1,4.887651019E-1,5.364934382E-1,-9.456409514E-2,7.318872195E-1
4.958411667E-1,7.004293384E-1,5.324538893E-1,-6.230792999E-2,8.820377998E-1
5.058231667E-1,8.664257973E-1,4.872049186E-1,-1.932884842E-1,1.012631588E0
5.158041667E-1,8.932791352E-1,3.159174603E-1,-4.152254015E-1,1.034487114E0
5.257851667E-1,8.041028108E-1,1.495203209E-1,-7.270503956E-1,1.094321678E0
5.357671667E-1,5.723571892E-1,1.962799197E-1,-1.514500775E0,1.630898880E0
5.457481667E-1,1.623321551E-1,4.567689916E-1,-2.756961595E0,2.799254701E0
5.557301667E-1,5.056379735E-2,6.237572846E-1,-1.941558602E0,2.039921482E0
5.657111667E-1,7.016239245E-1,1.084715222E0,-7.307335567E-1,1.484201730E0
5.756931667E-1,1.554974471E0,2.477322892E0,1.094179525E0,3.122867776E0
5.856741667E-1,6.311814212E-1,1.584523229E0,-7.143134058E-2,1.707104650E0
5.956561667E-1,3.702427715E-2,1.168717491E0,-7.417789471E-1,1.384740906E0
6.056371667E-1,-1.656310811E-1,1.194379459E0,-7.447113258E-1,1.417240595E0
6.156191667E-1,-1.449299350E0,-2.261249855E-2,-8.071549112E-1,1.659059668E0
6.256001667E-1,-4.083342240E0,-3.444152691E0,-3.105456233E-1,5.350916762E0
6.355821667E-1,-1.155054960E0,-2.981091511E0,3.696510333E-1,3.218338149E0
6.455631667E-1,1.475645369E-1,-2.042782091E0,8.921933073E-1,2.233997059E0
6.555441667E-1,4.409363762E-1,-1.056112251E0,1.773701413E0,2.110880071E0
6.655261667E-1,8.295291357E-1,-4.573962517E-1,2.260534156E0,2.450988492E0
6.755071667E-1,5.355941364E-1,-4.878734015E-1,1.546799040E0,1.708059953E0
6.854891667E-1,-1.161094037E-1,-6.657180735E-1,1.485432512E-1,6.919010367E-1
6.954701667E-1,-4.097342813E-1,-9.106759174E-1,-9.353469282E-1,1.368242188E0
7.054521667E-1,-5.368778195E-1,-1.276281847E0,-1.272584506E0,1.880586204E0
7.154331667E-1,-8.724083760E-1,-1.619097522E0,-1.230690376E0,2.212955481E0
7.254151667E-1,-1.245580310E0,-1.959790366E0,-1.030754192E0,2.540610713E0
7.353961667E-1,-1.521624145E0,-2.252547590E0,-6.937481636E-1,2.805458465E0
7.453781667E-1,-1.519784465E0,-2.307163362E0,-4.677369064E-1,2.802057353E0
7.553591667E-1,-9.383629221E-1,-2.088840462E0,-3.382082158E-1,2.314770885E0
7.653401667E-1,2.815245399E-1,-1.201294814E0,1.913460392E-1,1.248590647E0
7.753221667E-1,1.054873372E0,4.737267941E-2,7.966796243E-1,1.322762422E0
7.853031667E-1,1.050073685E0,7.345479879E-1,1.140628052E0,1.715589649E0
7.952851667E-1,1.382239973E0,9.933562776E-1,1.389767970E0,2.197452855E0
8.052661667E-1,1.397146864E0,8.331513396E-1,9.518009931E-1,1.884697760E0
8.152481667E-1,1.380788986E0,7.021845263E-1,3.338058472E-2,1.549437187E0
8.252291667E-1,1.002653204E0,6.368377984E-1,-8.118221587E-1,1.438725494E0
8.352111667E-1,7.145498525E-1,5.751952815E-1,-1.400177768E0,1.673896319E0
8.451921667E-1,6.269736917E-1,6.665021852E-1,-2.019601389E0,2.217230467E0
8.551741667E-1,3.947907715E-1,1.025523273E0,-2.700677467E0,2.915684571E0
8.651551667E-1,9.430939043E-1,1.131351444E0,-3.016834663E0,3.357182388E0
8.751371667E-1,1.534312311E0,1.348238414E0,-3.279910836E0,3.863893914E0
8.851181667E-1,2.059635667E0,1.410416535E0,-3.497920763E0,4.297304219E0
8.951001667E-1,1.481008070E0,9.345367965E-1,-4.018912940E0,4.383880147E0
9.050811667E-1,-1.025739035E0,-1.647968442E0,-4.442301055E0,4.847883993E0
9.150621667E-1,6.699385207E-2,-1.377708088E0,-4.641223916E0,4.841851628E0
9.250441667E-1,6.668021473E-1,2.812949270E-2,-3.406719401E0,3.471477128E0
9.350251667E-1,2.283156814E-2,6.732659519E-1,-2.043973169E0,2.152123286E0
9.450071667E-1,1.872953988E-1,7.735009691E-1,-1.629614325E0,1.813567248E0
9.549881667E-1,1.245675839E-1,4.550373387E-1,-2.142951912E0,2.194269573E0
9.649701667E-1,-4.984300377E-1,1.955194893E-1,-2.498141611E0,2.554872185E0
9.749511667E-1,-1.012265661E0,1.334917872E-1,-2.390069278E0,2.599025391E0
9.849331667E-1,-1.276113155E0,3.601500387E-1,-1.790637873E0,2.228128548E0
9.949141667E-1,-1.182231503E0,3.835197517E-1,-1.403297843E0,1.874567567E0
1.004896167E0,-1.297935841E0,1.964839876E-1,-1.127152559E0,1.730235907E0
1.014877167E0,-1.497551158E0,1.319932920E-1,-7.831561840E-1,1.695115132E0
1.024858167E0,-1.166185354E0,9.216995269E-2,-5.690557051E-1,1.300887380E0
1.034840167E0,-7.274144579E-1,-1.571123457E-1,-5.195227718E-1,9.075902121E-1
1.044821167E0,-5.715141669E-1,-2.105098499E-1,-7.790181094E-1,9.888437969E-1
1.054803167E0,-4.087637166E-1,-3.400310853E-1,-1.175033069E0,1.289733161E0
1.064784167E0,-2.622595357E-1,-3.819050431E-1,-1.330299448E0,1.408661829E0
1.074766083E0,-1.391022637E-1,-2.027812926E-1,-1.327456532E0,1.350040939E0
1.084747083E0,-2.462166946E-1,-1.099118668E-1,-1.122562494E0,1.154491157E0
1.094729083E0,-5.210450579E-1,-1.702152251E-1,-7.331917262E-1,9.154404855E-1
1.104710083E0,-7.740146470E-1,-3.269616812E-2,-3.705900961E-1,8.587809572E-1
1.114692083E0,-1.066163760E0,1.650835624E-1,-3.049755657E-1,1.121145772E0
1.124673083E0,-1.508156400E0,3.652238140E-1,-1.965407056E-1,1.564145904E0
1.134654083E0,-1.547522340E0,7.108910304E-1,3.301378888E-1,1.734699535E0
1.144636083E0,-1.654628713E0,7.119514230E-1,1.233995807E0,2.183441471E0
1.154617083E0,-2.142726502E0,7.618784586E-1,3.077154540E0,3.826305752E0
1.164599083E0,-2.339762905E0,1.001639736E0,5.156064822E0,5.750024092E0
1.174580083E0,-2.355377456E0,9.579736063E-1,7.271371683E0,7.703139785E0
1.184562083E0,-2.234658765E0,7.567676997E-1,9.171335531E0,9.469941530E0
1.194543083E0,-2.092622880E0,3.268532154E-1,1.075917852E1,1.096566578E1
1.204525083E0,-1.806315427E0,1.448062956E-2,1.230077120E1,1.243269710E1
1.214506083E0,-1.226711491E0,-7.157488972E-2,1.322356006E1,1.328053029E1
1.224488083E0,-8.538062634E-1,1.552660874E-1,1.320029750E1,1.322879234E1
1.234469083E0,-5.024858858E-1,3.973951945E-1,1.209227937E1,1.210923760E1
1.244450083E0,-1.646608453E-1,5.828478250E-1,1.054664509E1,1.056402137E1
1.254432083E0,4.857154135E-1,1.052576293E0,9.234900028E0,9.307374219E0
1.264413083E0,1.043085531E0,1.587227274E0,8.226376950E0,8.442783639E0
1.274395083E0,1.193223026E0,1.757365754E0,7.643766814E0,7.933428433E0
1.284376083E0,1.072960783E0,1.861076064E0,7.633801405E0,7.930307235E0
1.294358083E0,1.090005417E0,1.949338322E0,8.107403069E0,8.409400467E0
1.304339083E0,1.210136901E0,1.922651922E0,8.368837928E0,8.671705138E0
1.314321083E0,1.214874096E0,1.941182334E0,8.255853349E0,8.567568059E0
1.324302083E0,1.162173068E0,2.057785462E0,8.062145619E0,8.401387935E0
1.334284083E0,9.617156050E-1,2.013997710E0,7.656049476E0,7.974721140E0
1.344265083E0,6.452269448E-1,1.971757717E0,7.153366100E0,7.448140229E0
1.354247083E0,4.443187346E-1,1.934432893E0,6.560038018E0,6.853725159E0
1.364228083E0,3.567125338E-1,1.803709616E0,6.082744423E0,6.354556784E0
1.374209083E0,2.991201091E-1,1.666865766E0,5.799133998E0,6.041346659E0
1.384191083E0,5.032971504E-1,1.463660404E0,5.563415778E0,5.774703882E0
1.394172083E0,8.352116060E-1,1.258689768E0,5.178963103E0,5.394769428E0
1.404154083E0,1.074199735E0,1.027398475E0,4.664769484E0,4.895868364E0
1.414135083E0,1.136872751E0,6.890394008E-1,4.020642546E0,4.234716216E0
1.424117083E0,1.013390446E0,2.346320996E-1,3.166519876E0,3.332995731E0
1.434098083E0,1.023593838E0,-3.835998586E-1,2.117605401E0,2.383095850E0
1.444080083E0,9.055337298E-1,-1.023757121E0,9.694426274E-1,1.675675681E0
1.454061083E0,6.738017761E-1,-1.661554740E0,-1.220278823E-1,1.797126538E0
1.464042083E0,7.339188275E-1,-2.242016609E0,-1.308724977E0,2.697783606E0
1.474024083E0,9.272592788E-1,-2.749409332E0,-2.970159264E0,4.152217179E0
1.484005083E0,6.918536657E-1,-3.298212621E0,-4.796118997E0,5.861708405E0
1.493987083E0,1.238529299E0,-3.642338219E0,-6.752341831E0,7.771402880E0
1.503968083E0,1.780181882E0,-4.050173909E0,-8.883337941E0,9.924043994E0
1.513950083E0,1.636234688E0,-4.567778209E0,-1.077922628E1,1.182089594E1
1.523931083E0,1.676375239E0,-5.090730958E0,-1.243303755E1,1.353906195E1
1.533913083E0,1.227933706E0,-5.919386081E0,-1.339060215E1,1.469201071E1
1.543894083E0,9.989870001E-1,-6.553890840E0,-1.338080923E1,1.493310135E1
1.553876083E0,1.368779536E0,-6.893355623E0,-1.286309325E1,1.465779919E1
1.563857083E0,1.573027895E0,-7.295514252E0,-1.213427173E1,1.424568339E1
1.573839083E0,2.258698423E0,-7.272588488E0,-1.194108908E1,1.416269290E1
1.583820083E0,3.661307171E0,-7.129703003E0,-1.255007542E1,1.489101166E1
1.593801083E0,4.473973668E0,-7.498201550E0,-1.295880749E1,1.562594504E1
1.603783083E0,4.879848787E0,-7.428489876E0,-1.301133186E1,1.575722510E1
1.613764083E0,4.879828029E0,-6.850822976E0,-1.284383720E1,1.535287110E1
1.623746083E0,4.584835122E0,-6.581266335E0,-1.268754814E1,1.501025174E1
1.633727083E0,4.186140092E0,-6.163050082E0,-1.241703489E1,1.448066679E1
1.643709083E0,3.133602975E0,-5.833122109E0,-1.216338969E1,1.384892884E1
1.653690083E0,1.974050410E0,-5.189010959E0,-1.138217362E1,1.266398776E1
1.663672083E0,9.372329476E-1,-4.437093524E0,-1.014994308E1,1.111699371E1
1.673653083E0,1.944368774E-1,-4.071031512E0,-8.831816370E0,9.726874301E0
1.683635083E0,-3.805379641E-1,-3.763018610E0,-7.398766140E0,8.309443940E0
1.693616083E0,-7.316267189E-1,-3.494461258E0,-5.975889480E0,6.961163137E0
1.703597083E0,-7.455147332E-1,-3.197713309E0,-4.744682211E0,5.770023562E0
1.713579083E0,-5.292800206E-1,-3.122080452E0,-3.640866475E0,4.825290911E0
1.723560083E0,-2.765809017E-1,-2.990954302E0,-2.314407477E0,3.791937052E0
1.733542083E0,-3.377135414E-1,-2.714681548E0,-6.229816514E-1,2.805646536E0
1.743523083E0,-8.578295133E-1,-2.380037795E0,1.184677466E0,2.793548296E0
1.753505083E0,-1.192094659E0,-1.901093823E0,2.728478639E0,3.532682137E0
1.763486083E0,-1.847237751E0,-1.075245948E0,3.917749093E0,4.462868933E0
1.773468083E0,-2.715318018E0,-1.419206947E-1,4.186294166E0,4.991808516E0
1.783449083E0,-3.446195709E0,9.461981910E-1,4.023258006E0,5.381278738E0
1.793431083E0,-4.537744279E0,1.921926283E0,4.478801129E0,6.659172871E0
1.803412083E0,-5.406961244E0,3.054830163E0,5.724124746E0,8.445875996E0
1.813393083E0,-5.702014670E0,3.576752340E0,7.676034089E0,1.020919330E1
1.823375083E0,-5.379105694E0,3.575233818E0,1.042895350E1,1.226703494E1
1.833356083E0,-4.292572573E0,3.633326782E0,1.335365593E1,1.448956071E1
1.843338083E0,-2.507384013E0,3.944729315E0,1.588500095E1,1.655841536E1
1.853319083E0,-9.557290064E-1,4.186371934E0,1.703234395E1,1.756530297E1
1.863301083E0,8.676028419E-1,5.247671396E0,1.763816461E1,1.842269363E1
1.873282083E0,2.661888500E0,5.713737752E0,1.778259668E1,1.886672187E1
1.883264083E0,3.363174602E0,5.735455481E0,1.862230246E1,1.977363249E1
1.893245083E0,3.112721983E0,5.096948302E0,1.992919375E1,2.080482356E1
1.903227083E0,2.604291087E0,4.344607237E0,2.056766526E1,2.118222836E1
1.913208083E0,2.188654626E0,4.269146873E0,2.033874676E1,2.089690035E1
1.923189083E0,1.341187549E0,3.492987759E0,1.832418568E1,1.870228671E1
1.933171083E0,1.444849911E-1,3.011291210E0,1.594760242E1,1.623005772E1
1.943152083E0,-9.431867288E-1,2.685668834E0,1.333671538E1,1.363709629E1
1.953134083E0,-1.874125149E0,2.636877035E0,1.003663808E1,1.054512065E1
1.963115083E0,-2.104334999E0,2.188502306E0,6.134617996E0,6.844801392E0
1.973097083E0,-2.009663754E0,1.380453064E0,2.229559700E0,3.303836485E0
1.983078083E0,-1.374356026E0,6.494502425E-1,-1.162580253E0,1.913696148E0
1.993060083E0,-6.363381538E-1,-1.085903960E-1,-3.664737148E0,3.721157949E0
2.003041083E0,-6.247019023E-2,-8.136406428E-1,-5.322195328E0,5.384391956E0
2.013023083E0,6.156422263E-1,-1.529712599E0,-6.656264477E0,6.857469852E0
2.023004083E0,1.190083948E0,-2.343554678E0,-7.735282171E0,8.169647398E0
2.032985083E0,1.717709645E0,-2.928673854E0,-8.580004274E0,9.227357710E0
2.042967083E0,2.091612627E0,-3.499990385E0,-9.291796945E0,1.014703240E1
2.052948083E0,2.315330168E0,-4.043520655E0,-9.775739994E0,1.082940005E1
2.062930083E0,2.528215595E0,-4.404229833E0,-1.025815750E1,1.144634920E1
2.072911167E0,2.668100290E0,-4.767282576E0,-1.083974379E1,1.213860733E1
2.082893167E0,2.896864124E0,-5.063592861E0,-1.147035197E1,1.286859622E1
2.092874167E0,3.111851918E0,-5.351320894E0,-1.210211321E1,1.359343231E1
2.102856167E0,3.233918684E0,-5.553085502E0,-1.248628464E1,1.404287338E1
2.112837167E0,3.248905098E0,-5.705490839E0,-1.265075395E1,1.425305531E1
2.122819167E0,3.174238200E0,-5.846968315E0,-1.265471836E1,1.429701799E1
2.132800167E0,3.124309995E0,-5.902992243E0,-1.240126963E1,1.408538671E1
2.142781167E0,3.129735627E0,-5.983103775E0,-1.180227852E1,1.359729952E1
2.152763167E0,3.210583031E0,-6.068464352E0,-1.085781754E1,1.284625645E1
2.162744167E0,3.370828022E0,-6.151611759E0,-9.463311567E0,1.177960418E1
2.172726167E0,3.521695542E0,-6.185977015E0,-8.193523784E0,1.085368523E1
2.182707167E0,3.606774284E0,-6.174153945E0,-7.078099571E0,1.006123706E1
2.192689167E0,3.655426919E0,-5.861720256E0,-6.046839595E0,9.180750481E0
2.202670167E0,3.481922196E0,-5.407790964E0,-5.308142130E0,8.339326002E0
2.212652167E0,2.860842059E0,-4.896907454E0,-4.742888870E0,7.393180285E0
2.222633167E0,2.129484897E0,-4.278362085E0,-3.977828064E0,6.217893869E0
2.232615167E0,9.971037582E-1,-3.479661078E0,-2.795950245E0,4.573794365E0
2.242596167E0,-8.696746565E-1,-2.321544004E0,-1.198682132E0,2.753677437E0
2.252577167E0,-1.809084376E0,-6.152861309E-1,1.508195722E-1,1.916796767E0
2.262559167E0,-1.761857439E0,1.229077129E0,1.138465167E0,2.431229146E0
2.272540167E0,-1.671026060E0,2.912827315E0,2.009970440E0,3.913677584E0
2.282522167E0,-1.936865773E0,4.570142823E0,3.213275381E0,5.912934392E0
2.292503167E0,-2.792848297E0,6.307368135E0,5.137342038E0,8.600882374E0
2.302485167E0,-3.820340327E0,7.842881464E0,7.202020782E0,1.131259887E1
2.312466167E0,-4.699501068E0,8.706225194E0,9.360317541E0,1.361980954E1
2.322448167E0,-4.950286685E0,9.134913225E0,1.142821927E1,1.544526379E1
2.332429167E0,-3.927781745E0,9.037441894E0,1.308146336E1,1.637765274E1
2.342411167E0,-2.913508223E0,8.316414131E0,1.477559820E1,1.720376634E1
2.352392167E0,-2.302671823E0,7.498509114E0,1.559841254E1,1.745967956E1
2.362373167E0,-1.487545403E0,8.101417274E0,1.578315883E1,1.780319791E1
2.372355167E0,-6.570826131E-1,7.964496533E0,1.563280353E1,1.755703587E1
2.382336167E0,4.829917073E-1,7.253554047E0,1.399636316E1,1.577166792E1
2.392318167E0,8.078349423E-1,7.035688546E0,1.185565307E1,1.380977988E1
2.402299167E0,-6.823612958E-2,6.011169825E0,9.722157864E0,1.143062432E1
2.412281167E0,-1.242976253E0,4.524466421E0,7.832482191E0,9.130364924E0
2.422262167E0,-1.712287083E0,2.994233713E0,6.200006239E0,7.094888297E0
2.432244167E0,-1.406832338E0,1.621108965E0,4.495431195E0,4.981573359E0
2.442225167E0,-1.086245584E0,5.954380497E-1,2.639543073E0,2.915761234E0
2.452207167E0,-1.168324850E0,-1.932206565E-1,8.424153757E-1,1.453265579E0
2.462188167E0,-1.254353180E0,-8.113000023E-1,-8.634331924E-1,1.725435154E0
2.472169167E0,-1.174821546E0,-1.295352395E0,-2.505280477E0,3.055253469E0
2.482151167E0,-9.857119203E-1,-1.775152399E0,-4.012949950E0,4.497394949E0
2.492132167E0,-4.674454227E-1,-2.275869356E0,-5.277324380E0,5.766128611E0
2.502114167E0,5.837863031E-1,-2.815104554E0,-6.452597769E0,7.064109149E0
2.512095167E0,1.880331530E0,-3.279582222E0,-7.597332321E0,8.485915661E0
2.522077167E0,2.918771594E0,-3.493624814E0,-8.492671430E0,9.635876191E0
2.532058167E0,3.506037868E0,-3.768463830E0,-9.221504057E0,1.056076504E1
2.542040167E0,3.588965711E0,-4.227069724E0,-9.671139153E0,1.114808171E1
2.552021167E0,3.363275466E0,-4.676673245E0,-9.624220510E0,1.121643949E1
2.562003167E0,3.115920410E0,-5.044555496E0,-9.252082071E0,1.098897278E1
2.571984167E0,3.043594446E0,-5.446632848E0,-8.887129276E0,1.085865292E1
2.581965167E0,3.117669605E0,-6.014014496E0,-8.885320147E0,1.117305456E1
2.591947167E0,3.298783894E0,-6.539628897E0,-9.068636205E0,1.165713875E1
2.601928167E0,3.538676733E0,-6.939230538E0,-9.365466599E0,1.218142513E1
2.611910167E0,3.819957627E0,-7.281669214E0,-9.512612951E0,1.257396469E1
2.621891167E0,4.055315658E0,-7.483641399E0,-9.387787760E0,1.267205716E1
2.631873167E0,4.237670434E0,-7.513670944E0,-9.043943413E0,1.249824045E1
2.641854167E0,4.394559708E0,-7.449265033E0,-8.366000274E0,1.203302394E1
2.651836167E0,4.492252356E0,-7.144119898E0,-7.255191268E0,1.112908714E1
2.661817167E0,4.560726467E0,-6.620076644E0,-5.938535128E0,9.994590544E0
2.671799167E0,4.296786076E0,-5.957201779E0,-4.398698952E0,8.561493800E0
2.681780167E0,3.624703601E0,-5.060711353E0,-2.542559985E0,6.724127220E0
2.691761167E0,2.491067357E0,-3.964358418E0,-7.568910760E-1,4.742830204E0
2.701743167E0,8.923254544E-1,-2.722905657E0,7.435880756E-1,2.960301194E0
2.711724167E0,-1.275466014E0,-1.293373112E0,2.040176572E0,2.731656641E0
2.721706167E0,-3.144388457E0,1.083372116E-1,2.951874436E0,4.314218168E0
2.731687167E0,-4.059129505E0,1.167197215E0,3.570251405E0,5.530422838E0
2.741669167E0,-4.521597485E0,1.761543882E0,4.266913236E0,6.461766727E0
2.751650167E0,-4.806288182E0,2.284394889E0,4.642140759E0,7.061751690E0
2.761632167E0,-5.015926943E0,2.820140176E0,4.424248361E0,7.258559587E0
2.771613167E0,-5.100228590E0,3.634912840E0,3.860166298E0,7.357024322E0
2.781595167E0,-4.831234743E0,4.767296317E0,3.772997761E0,7.765529951E0
2.791576167E0,-4.081914642E0,5.921763559E0,4.675225475E0,8.578289109E0
2.801557167E0,-3.759702362E0,6.440906847E0,6.402896436E0,9.829431603E0
2.811539167E0,-3.763978138E0,6.410038810E0,8.478566777E0,1.127573605E1
2.821520167E0,-3.421297972E0,6.120596958E0,1.084847486E1,1.291729049E1
2.831502167E0,-2.465144604E0,5.977887474E0,1.325857786E1,1.475133769E1
2.841483167E0,-1.448234572E0,5.705681459E0,1.526937218E1,1.636477653E1
2.851465167E0,-3.693984336E-1,5.579107951E0,1.610589356E1,1.704883304E1
2.861446167E0,8.448782229E-1,5.634092828E0,1.595449277E1,1.694115288E1
2.871428167E0,1.722891740E0,5.421750607E0,1.492390347E1,1.597143170E1
2.881409167E0,2.062460603E0,5.111315496E0,1.310927506E1,1.422084324E1
2.891391167E0,1.492337196E0,4.838678541E0,1.113838916E1,1.223534198E1
2.901372167E0,1.034024540E-1,4.286434166E0,9.400117784E0,1.033181612E1
2.911353167E0,-1.478093671E0,3.409090447E0,7.816090692E0,8.654359149E0
2.921335167E0,-2.443616033E0,2.223889655E0,6.152651394E0,6.983699857E0
2.931316167E0,-2.441908061E0,9.424688369E-1,4.564559902E0,5.261783879E0
2.941298167E0,-1.706456971E0,-2.091630900E-1,3.263834501E0,3.688951103E0
2.951279167E0,-7.694178584E-1,-1.350191676E0,2.129784567E0,2.636475622E0
2.961261167E0,1.069043514E-1,-2.467428526E0,1.009044650E0,2.667921134E0
2.971242167E0,9.656624025E-1,-3.535258158E0,-1.230593312E-1,3.666837564E0
2.981224167E0,1.845805183E0,-4.469223390E0,-1.243309836E0,4.992672013E0
2.991205167E0,2.792005128E0,-5.126156899E0,-2.476041475E0,6.340627617E0
3.001187167E0,3.563105815E0,-5.618806452E0,-3.776278049E0,7.650293125E0
3.011168167E0,4.290857292E0,-5.853159347E0,-5.077329724E0,8.857212190E0
3.021149167E0,4.869301871E0,-5.890586790E0,-6.292955334E0,9.900020216E0
3.031131167E0,5.110117986E0,-5.824700949E0,-7.286815349E0,1.063664068E1
3.041112167E0,4.858783607E0,-5.653865188E0,-8.037048200E0,1.096212176E1
3.051094167E0,3.996383618E0,-5.503072513E0,-8.588431866E0,1.095518375E1
3.061075167E0,3.084024433E0,-5.107374473E0,-8.696680784E0,1.054650356E1
3.071057167E0,2.310322320E0,-4.475537213E0,-8.686034759E0,1.004067838E1
3.081037542E0,1.559883939E0,-4.115740492E0,-8.885449955E0,9.915834741E0
3.091019542E0,8.034167862E-1,-3.989951681E0,-9.035420512E0,9.909793983E0
3.101000542E0,2.276642650E-1,-3.826025575E0,-9.165975389E0,9.935059514E0
3.110982542E0,-1.022181004E-2,-3.684309533E0,-9.228405526E0,9.936685049E0
3.120963542E0,5.142187625E-3,-3.590089254E0,-9.199715577E0,9.875400447E0
3.130944542E0,3.032817735E-1,-3.488462892E0,-9.205546421E0,9.849032343E0
3.140926542E0,6.460144186E-1,-3.408074201E0,-9.060410342E0,9.701718402E0
3.150907542E0,8.209680811E-1,-3.436143760E0,-8.747635760E0,9.434097939E0
3.160889542E0,9.950227341E-1,-3.492166518E0,-8.299197589E0,9.058806646E0
3.170870542E0,1.285992756E0,-3.327261003E0,-7.706589299E0,8.492111739E0
3.180852542E0,1.341971076E0,-3.064762536E0,-6.989383276E0,7.748879554E0
3.190833542E0,1.287747944E0,-2.761915941E0,-6.257432914E0,6.960024505E0
3.200815542E0,1.118187461E0,-2.302893725E0,-5.350955443E0,5.931811432E0
3.210796542E0,7.481920271E-1,-1.956024613E0,-4.302885307E0,4.785461897E0
3.220777542E0,4.059717442E-1,-1.553280094E0,-3.236747859E0,3.613035955E0
3.230759542E0,-1.480506232E-1,-7.617892885E-1,-2.047400222E0,2.189540951E0
3.240740542E0,-1.093250695E0,1.144604158E-1,-1.035996221E0,1.510492118E0
3.250722542E0,-2.436988214E0,1.098956992E0,4.340680540E-1,2.708326624E0
3.260703542E0,-3.161012968E0,2.316595505E0,2.572176132E0,4.687718824E0
3.270685542E0,-3.779096407E0,2.463911134E0,5.442548568E0,7.069212307E0
3.280666542E0,-4.335808932E0,2.015576166E0,8.520600071E0,9.770486781E0
3.290648542E0,-4.498513847E0,2.160052679E0,1.072659783E1,1.183056869E1
3.300629542E0,-4.296331163E0,3.231602602E0,1.129714341E1,1.251108173E1
3.310611542E0,-3.366957166E0,4.635268819E0,9.711135278E0,1.127511712E1
3.320592542E0,-1.885254593E0,5.458169405E0,7.636397569E0,9.573942028E0
3.330573542E0,-7.659171304E-1,6.232817890E0,6.823668507E0,9.273462125E0
3.340555542E0,-7.187116814E-1,6.614979041E0,6.954562522E0,9.624990082E0
3.350536542E0,-2.336212622E0,6.332687749E0,7.626083080E0,1.018420182E1
3.360518542E0,-4.443699709E0,5.531389993E0,8.778247688E0,1.128717745E1
3.370499542E0,-5.525333447E0,4.005659933E0,9.648563054E0,1.181818049E1
3.380481542E0,-5.235499831E0,2.443932806E0,1.010275255E1,1.163825052E1
3.390462542E0,-4.378857303E0,1.227186139E0,9.793184577E0,1.079753867E1
3.400444542E0,-3.183166898E0,4.876440445E-1,8.635587321E0,9.216491556E0
3.410425542E0,-2.017354304E0,2.075551057E-1,6.818404258E0,7.113609080E0
3.420407542E0,-8.150743800E-1,9.060143709E-2,4.550117279E0,4.623431855E0
3.430388542E0,9.270982611E-1,6.092364554E-1,2.114732080E0,2.388047741E0
3.440369542E0,2.213613466E0,7.403493029E-1,-1.416838825E-1,2.338434517E0
3.450351542E0,2.817203996E0,5.176034233E-1,-2.086984702E0,3.544017044E0
3.460332542E0,3.174917939E0,5.635219002E-1,-3.477199400E0,4.742212197E0
3.470314542E0,3.538598088E0,7.409996594E-1,-4.535497486E0,5.800128824E0
3.480295542E0,3.493133647E0,8.393964583E-1,-5.036485754E0,6.186498027E0
3.490277542E0,3.405849336E0,9.057766816E-1,-5.391186626E0,6.440895460E0
3.500258542E0,3.714108113E0,9.610344775E-1,-5.679782386E0,6.854058236E0
3.510240542E0,4.083366798E0,6.224400531E-1,-5.663073383E0,7.009401984E0
3.520221542E0,4.138704262E0,2.839717823E-1,-5.777058420E0,7.112237126E0
3.530203542E0,3.710139315E0,-5.018782139E-2,-6.069249049E0,7.113609251E0
3.540184542E0,3.233739174E0,-6.343727584E-1,-6.432740625E0,7.227700173E0
3.550165542E0,2.742038039E0,-1.381134849E0,-6.869525880E0,7.524406415E0
3.560147542E0,2.403126696E0,-2.118899682E0,-7.354580485E0,8.022132378E0
3.570128542E0,2.102358494E0,-2.696634702E0,-7.884412483E0,8.593934498E0
3.580110542E0,2.047799879E0,-2.989134941E0,-8.664355622E0,9.391457309E0
3.590091542E0,2.254362420E0,-2.922747116E0,-9.385804385E0,1.008553046E1
3.600073542E0,2.197598820E0,-2.664297261E0,-9.705433073E0,1.030161888E1
3.610054542E0,1.903968314E0,-2.325563965E0,-9.456406006E0,9.922547941E0
3.620036542E0,1.572446682E0,-2.244962144E0,-8.961877157E0,9.371642640E0
3.630017542E0,1.379086862E0,-2.519652348E0,-8.348631120E0,8.828939353E0
3.639999542E0,1.456950139E0,-2.810971157E0,-7.442679899E0,8.088123802E0
3.649980542E0,1.528177412E0,-2.793457577E0,-5.850756726E0,6.661087427E0
3.659961542E0,1.206289945E0,-2.697266786E0,-3.451814298E0,4.543721547E0
3.669943542E0,3.772418886E-1,-2.508291208E0,-9.676334989E-1,2.714802169E0
3.679924542E0,-1.454513897E0,-2.134172610E0,1.380251627E0,2.928378042E0
3.689906542E0,-2.977684338E0,-1.167368538E0,3.939232348E0,5.074140795E0
3.699887542E0,-4.266643387E0,7.108232027E-1,6.570529677E0,7.866471614E0
3.709869542E0,-6.069911538E0,2.141065892E0,8.879552454E0,1.096697046E1
3.719850542E0,-7.074920440E0,2.873256283E0,1.008774976E1,1.265198783E1
3.729832542E0,-6.153125603E0,2.916452296E0,1.117437761E1,1.308561667E1
3.739813542E0,-4.490166362E0,2.610808686E0,1.241144963E1,1.345444157E1
3.749795542E0,-3.082261498E0,2.724631755E0,1.409134533E1,1.467957654E1
3.759776542E0,-2.250387921E0,3.358601494E0,1.608043946E1,1.658086195E1
3.769757542E0,-1.566342481E0,3.251901796E0,1.875392328E1,1.909811332E1
3.779739542E0,-6.741376255E-1,2.465567942E0,2.152054623E1,2.167181111E1
3.789720542E0,-3.154207394E-1,1.902113139E0,2.325967657E1,2.333945326E1
3.799702542E0,-5.672405832E-1,1.655342073E0,2.339679611E1,2.346213945E1
3.809683542E0,-1.027553865E0,2.006914393E0,2.191300901E1,2.202869801E1
3.819665542E0,-1.864520805E0,2.758188926E0,1.851440613E1,1.881136035E1
3.829646542E0,-2.589219304E0,3.142660604E0,1.374619238E1,1.433660271E1
3.839628542E0,-2.920825136E0,3.200622884E0,8.992752795E0,9.982224659E0
3.849609542E0,-2.888236265E0,3.257114296E0,4.866248163E0,6.529247540E0
3.859591542E0,-2.288246596E0,3.089514092E0,1.323992057E0,4.066217502E0
3.869572542E0,-1.731141576E0,2.433883342E0,-1.235770437E0,3.232300706E0
3.879553542E0,-1.544599902E0,1.401776105E0,-2.890792083E0,3.564750197E0
3.889535542E0,-1.088861482E0,3.737908620E-1,-4.106706544E0,4.265017887E0
3.899516542E0,-2.231009518E-1,-8.318564737E-1,-5.670433273E0,5.735466218E0
3.909498542E0,8.284946170E-1,-2.059346960E0,-7.473694115E0,7.796372039E0
3.919479542E0,1.845938500E0,-3.247465805E0,-9.249680620E0,9.975475661E0
3.929461542E0,2.495082933E0,-3.962477953E0,-1.102999231E1,1.198279603E1
3.939442542E0,2.839892947E0,-4.657378896E0,-1.263743048E1,1.376447672E1
3.949424542E0,2.997140656E0,-5.926951209E0,-1.419523048E1,1.567214634E1
3.959405542E0,3.064214067E0,-6.610091938E0,-1.518112717E1,1.683892352E1
3.969387542E0,2.507732507E0,-7.292481886E0,-1.583237718E1,1.761059856E1
3.979368542E0,2.112937423E0,-7.564349347E0,-1.620384144E1,1.800689765E1
3.989349542E0,1.839731242E0,-7.661552875E0,-1.632352459E1,1.812571263E1
3.999331542E0,1.874291648E0,-7.739705590E0,-1.620453141E1,1.805554901E1
4.009312542E0,2.149648582E0,-7.701978770E0,-1.558140065E1,1.751346660E1
4.019294542E0,2.704231405E0,-7.509245771E0,-1.460679844E1,1.664512542E1
4.029275542E0,3.295110965E0,-6.860407147E0,-1.335684266E1,1.537296941E1
4.039257542E0,3.500911029E0,-5.645102550E0,-1.200082541E1,1.371653642E1
4.049238542E0,3.336035335E0,-4.788256246E0,-1.060838584E1,1.210761660E1
4.059220542E0,2.712043285E0,-3.956185180E0,-9.090830482E0,1.027860782E1
4.069201542E0,1.530513960E0,-3.327706561E0,-7.060766085E0,7.954276940E0
4.079183958E0,-1.642453641E-1,-2.854460408E0,-4.337180981E0,5.194810836E0
4.089164958E0,-1.682535573E0,-2.157908505E0,-1.215304012E0,2.994070626E0
4.099145958E0,-2.976847894E0,-1.173928530E0,1.401183490E0,3.493285953E0
4.109127958E0,-3.679560424E0,2.061406642E-1,3.401374462E0,5.015077977E0
4.119108958E0,-3.681999882E0,1.990532541E0,4.756459672E0,6.335870228E0
4.129090958E0,-3.771877434E0,3.536436957E0,5.277128499E0,7.387931437E0
4.139071958E0,-3.685496810E0,5.137230356E0,5.521581874E0,8.394158019E0
4.149053958E0,-3.395900006E0,7.276224287E0,5.551458807E0,9.761878488E0
4.159034958E0,-3.436668840E0,9.542562389E0,4.873802766E0,1.125278379E1
4.169016958E0,-4.009363560E0,1.137907225E1,4.077151793E0,1.273504803E1
4.178997958E0,-5.315883844E0,1.198317968E1,4.655530298E0,1.391147651E1
4.188979958E0,-7.376777685E0,1.147230026E1,7.315698255E0,1.547740170E1
4.198960958E0,-9.244598805E0,1.033032033E1,1.073208018E1,1.753156212E1
4.208941958E0,-1.022017282E1,8.535925623E0,1.319297444E1,1.874482684E1
4.218923958E0,-9.923310853E0,6.436321460E0,1.491990515E1,1.903948271E1
4.228904958E0,-8.280390605E0,4.645916891E0,1.595659894E1,1.856778021E1
4.238886958E0,-6.019940649E0,3.601813506E0,1.579538536E1,1.728314047E1
4.248867958E0,-3.698876116E0,3.280664542E0,1.403767491E1,1.488290164E1
4.258849958E0,-1.772061269E0,2.976454669E0,1.136200774E1,1.187832915E1
4.268830958E0,-5.406001570E-1,2.455640247E0,8.237545717E0,8.612756643E0
4.278812958E0,1.547864695E-1,1.930665239E0,5.081861901E0,5.438450836E0
4.288793958E0,5.657965402E-1,1.372936760E0,2.182486106E0,2.639758829E0
4.298774958E0,8.289273110E-1,6.971009570E-1,-2.128275400E-1,1.103796083E0
4.308756958E0,8.086743101E-1,-4.257357717E-3,-2.000016725E0,2.157322221E0
4.318737958E0,6.395362153E-1,-6.152773601E-1,-3.579091226E0,3.687474312E0
4.328719958E0,6.651728207E-1,-1.214234557E0,-5.073624344E0,5.259133429E0
4.338700958E0,6.739510994E-1,-1.883730224E0,-6.464844178E0,6.767337725E0
4.348682958E0,7.828117099E-1,-2.579285177E0,-7.752399310E0,8.207630673E0
4.358663958E0,1.075189011E0,-3.210111453E0,-8.801451194E0,9.430079007E0
4.368645958E0,1.636324735E0,-3.742791045E0,-9.309734448E0,1.016647426E1
4.378626958E0,2.475924823E0,-4.112053238E0,-9.410082609E0,1.056356191E1
4.388608958E0,3.467847071E0,-4.403517643E0,-9.274466967E0,1.083663548E1
4.398589958E0,4.367165503E0,-4.724764840E0,-8.987090351E0,1.105275216E1
4.408570958E0,5.083573381E0,-4.840815699E0,-8.732600815E0,1.120421938E1
4.418552958E0,5.234427452E0,-4.710139784E0,-8.625355278E0,1.113469358E1
4.428533958E0,5.458952347E0,-5.168450394E0,-8.319038361E0,1.121246804E1
4.438515958E0,5.644228392E0,-5.530390704E0,-8.252954299E0,1.142601375E1
4.448496958E0,5.361768699E0,-5.393830152E0,-8.234311622E0,1.120918620E1
4.458478958E0,4.990314385E0,-5.410294742E0,-8.217972747E0,1.103220753E1
4.468459958E0,4.687523924E0,-5.467705044E0,-8.282346498E0,1.097569781E1
4.478441958E0,4.323556969E0,-5.242328795E0,-8.180629504E0,1.063474754E1
4.488422958E0,4.182775896E0,-5.010454534E0,-8.047339300E0,1.036146412E1
4.498404958E0,3.747007764E0,-4.909717534E0,-7.844778301E0,9.984284653E0
4.508385958E0,3.104878820E0,-4.786495065E0,-7.487708722E0,9.413638478E0
4.518366958E0,2.778507123E0,-4.275881696E0,-6.877216138E0,8.561505003E0
4.528348958E0,2.535672550E0,-3.582646625E0,-6.069054921E0,7.489887833E0
4.538329958E0,2.000118467E0,-2.924467367E0,-5.052347496E0,6.170834504E0
4.548311958E0,1.455451498E0,-2.307815619E0,-3.662318155E0,4.566938390E0
4.558292958E0,7.864867580E-1,-1.697404604E0,-1.715773632E0,2.538429232E0
4.568274958E0,-2.724334717E-2,-1.058923446E0,6.033274055E-1,1.219042666E0
4.578255958E0,-4.990809059E-1,-2.352615523E-1,3.027215810E0,3.077087147E0
4.588237958E0,-1.581667449E0,8.516668403E-1,4.956835567E0,5.272307575E0
4.598218958E0,-3.110355615E0,2.084836728E0,6.331168057E0,7.355579189E0
4.608200958E0,-3.707500759E0,3.519293798E0,7.798119859E0,9.324251394E0
4.618181958E0,-3.806289468E0,4.800185736E0,9.665763223E0,1.144362710E1
4.628162958E0,-4.638513147E0,5.374117434E0,1.273177765E1,1.457721182E1
4.638144958E0,-5.483053401E0,4.622958676E0,1.618412463E1,1.770201998E1
4.648125958E0,-5.783474570E0,4.003158202E0,1.966409502E1,2.088421621E1
4.658107958E0,-5.601164818E0,3.963394797E0,2.227855354E1,2.331127396E1
4.668088958E0,-5.981947196E0,3.905492159E0,2.298109416E1,2.406589392E1
4.678070958E0,-6.489836347E0,3.704411383E0,2.229057308E1,2.350979131E1
4.688051958E0,-6.038483924E0,3.627155923E0,2.073878285E1,2.190243508E1
4.698033958E0,-4.999783366E0,3.431339395E0,1.883134860E1,1.978361984E1
4.708014958E0,-4.354524700E0,3.100834301E0,1.707359606E1,1.789091225E1
4.717996958E0,-3.949606478E0,2.783423755E0,1.516094609E1,1.591229479E1
4.727977958E0,-3.767031554E0,2.394250330E0,1.294071854E1,1.368886985E1
4.737958958E0,-3.649308684E0,2.184774999E0,1.054742043E1,1.137272058E1
4.747940958E0,-3.718791148E0,1.889487100E0,7.707973920E0,8.764270138E0
4.757921958E0,-3.660628309E0,1.410755674E0,4.885797159E0,6.265895392E0
4.767903958E0,-2.984082069E0,8.961255598E-1,2.256854503E0,3.847230051E0
4.777884958E0,-2.367711572E0,9.971724629E-2,-1.550851160E-1,2.374879578E0
4.787866958E0,-1.784675175E0,-6.480615288E-1,-2.348527735E0,3.020038368E0
4.797847958E0,-6.340375668E-1,-1.041183578E0,-4.483519247E0,4.646290103E0
4.807829958E0,6.580196294E-1,-1.610583099E0,-6.685484183E0,6.908159416E0
4.817810958E0,1.723778763E0,-2.488078553E0,-8.721765924E0,9.232071758E0
4.827792958E0,2.725004808E0,-3.314974834E0,-1.030107724E1,1.115916223E1
4.837773958E0,3.501822025E0,-3.837938400E0,-1.148477354E1,1.260525890E1
4.847754958E0,3.838430735E0,-4.227901783E0,-1.235504271E1,1.361087008E1
4.857736958E0,3.870649478E0,-4.466693007E0,-1.289930155E1,1.418891307E1
4.867717958E0,3.774987568E0,-4.623320326E0,-1.291442011E1,1.422701194E1
4.877699958E0,3.763311263E0,-4.754967463E0,-1.272544745E1,1.409642650E1
4.887680958E0,3.664797374E0,-4.871801848E0,-1.252273384E1,1.392781591E1
4.897662958E0,3.537586520E0,-5.163351622E0,-1.229166240E1,1.379346523E1
4.907643958E0,3.383059813E0,-5.452850193E0,-1.204022628E1,1.364352293E1
4.917625958E0,3.085170195E0,-5.757253901E0,-1.163439677E1,1.334254233E1
4.927606958E0,2.942801896E0,-5.917355343E0,-1.124146154E1,1.304015471E1
4.937588958E0,2.825486870E0,-5.951662127E0,-1.080849393E1,1.265816729E1
4.947569958E0,2.630616129E0,-5.824923728E0,-1.035284381E1,1.216680946E1
4.957550958E0,2.268053968E0,-5.629080595E0,-9.805019926E0,1.153121992E1
4.967532958E0,1.832776271E0,-5.379658256E0,-9.227186966E0,1.083700933E1
4.977513958E0,1.301114095E0,-5.206024017E0,-8.727938245E0,1.024560833E1
4.987495958E0,7.957393920E-1,-5.005882012E0,-8.250143543E0,9.682815932E0
4.997476958E0,6.251690948E-1,-4.460845499E0,-7.653504767E0,8.880659558E0
5.007458958E0,7.876718424E-1,-3.900459461E0,-6.858519081E0,7.929268247E0
5.017439958E0,7.245246908E-1,-3.697424837E0,-5.723441792E0,6.852274980E0
5.027421958E0,1.287396088E-1,-3.230267390E0,-4.502023931E0,5.542510331E0
5.037402958E0,-5.354418164E-1,-2.263727905E0,-3.493436533E0,4.197053821E0
5.047384958E0,-9.335927635E-1,-1.131925641E0,-2.508670108E0,2.906247893E0
5.057365958E0,-1.625222189E0,1.147633016E-1,-1.364171784E0,2.124966455E0
5.067346958E0,-2.763683262E0,1.825102531E0,-3.917032224E-1,3.335022614E0
5.077329417E0,-3.858024755E0,3.870466753E0,5.778949410E-1,5.495346254E0
5.087310417E0,-5.076298860E0,5.614871861E0,2.230910407E0,7.891296305E0
5.097292417E0,-6.406135794E0,7.011684557E0,4.930130163E0,1.070086350E1
5.107273417E0,-7.527910084E0,7.913761413E0,7.978948511E0,1.352629547E1
5.117255417E0,-8.432936275E0,8.020798788E0,1.126630402E1,1.619806265E1
5.127236417E0,-9.233708950E0,7.783787164E0,1.487340575E1,1.915899064E1
5.137218417E0,-9.526612939E0,7.760284865E0,1.790086013E1,2.171218940E1
5.147199417E0,-9.495698125E0,7.805464547E0,2.046505364E1,2.387282933E1
5.157181417E0,-8.864976515E0,7.626706978E0,2.258838814E1,2.543599314E1
5.167162417E0,-7.121527426E0,7.243465261E0,2.338928829E1,2.549985781E1
5.177143417E0,-4.621714973E0,6.656943923E0,2.221110474E1,2.364335690E1
5.187125417E0,-2.045647811E0,6.003226967E0,1.925939636E1,2.027677877E1
5.197106417E0,-1.757167241E-1,5.570261114E0,1.553171803E1,1.650130147E1
5.207088417E0,4.534735009E-1,5.037061120E0,1.174632184E1,1.278881150E1
5.217069417E0,3.060230944E-1,4.413449138E0,8.003222058E0,9.144602055E0
5.227051417E0,-8.326785922E-2,3.610912358E0,4.376073736E0,5.674120455E0
5.237032417E0,-1.633451852E-1,2.504458358E0,1.001746740E0,2.702311945E0
5.247014417E0,2.955928311E-1,1.223341010E0,-2.121555780E0,2.466766563E0
5.256995417E0,1.239752098E0,-6.962922871E-2,-4.743024525E0,4.902868052E0
5.266977417E0,2.443028680E0,-1.163887691E0,-6.929125965E0,7.438804361E0
5.276958417E0,3.424354896E0,-2.157282853E0,-8.642435580E0,9.543152965E0
5.286939417E0,4.215375293E0,-3.038774001E0,-9.826141824E0,1.111560162E1
5.296921417E0,4.931105479E0,-3.687634844E0,-1.048724089E1,1.216127762E1
5.306902417E0,5.286620284E0,-4.097289019E0,-1.086863021E1,1.276178882E1
5.316884417E0,4.920209777E0,-4.396185234E0,-1.093882135E1,1.277469066E1
5.326865417E0,4.435986062E0,-4.650927955E0,-1.083686462E1,1.259947372E1
5.336847417E0,4.162152182E0,-4.953464647E0,-1.062714254E1,1.244172341E1
5.346828417E0,4.188665504E0,-5.395736344E0,-1.033933206E1,1.239196017E1
5.356810417E0,4.226401972E0,-5.975374340E0,-9.992012129E0,1.238579342E1
5.366791417E0,3.917706116E0,-6.588350236E0,-9.324688702E0,1.207081602E1
5.376773417E0,3.493728309E0,-6.968413407E0,-8.291500314E0,1.138041741E1
5.386754417E0,3.104670660E0,-7.158762496E0,-7.081582173E0,1.053734627E1
5.396735417E0,2.717467162E0,-7.252465881E0,-5.840775529E0,9.700389060E0
5.406717417E0,2.522006437E0,-7.170735254E0,-4.862900632E0,9.023733325E0
5.416698417E0,2.639015947E0,-6.911764997E0,-4.505641603E0,8.662430767E0
5.426680417E0,2.896682275E0,-6.574963036E0,-4.667204264E0,8.567596091E0
5.436661417E0,3.095246994E0,-6.029827121E0,-5.016018745E0,8.432070512E0
5.446643417E0,2.995373628E0,-5.259186317E0,-5.216923812E0,7.990469195E0
5.456624417E0,2.651842691E0,-4.331136129E0,-4.684205629E0,6.908892256E0
5.466606417E0,1.838919502E0,-3.512128912E0,-3.390595704E0,5.216590233E0
5.476587417E0,5.274679685E-1,-2.703399346E0,-1.666094518E0,3.219077729E0
5.486568417E0,-1.277951081E0,-1.619419119E0,5.120792663E-1,2.125535797E0
5.496550417E0,-3.071033674E0,-1.603546268E-1,2.795452647E0,4.155901459E0
5.506531417E0,-4.298649584E0,1.602221873E0,4.385932726E0,6.346803058E0
5.516513417E0,-5.027217332E0,3.314915192E0,5.257452033E0,7.993896341E0
5.526494417E0,-4.898537950E0,4.927670240E0,5.856665922E0,9.087251717E0
5.536476417E0,-3.488741804E0,6.392907638E0,6.307504376E0,9.634583483E0
5.546457417E0,-1.618976485E0,6.801714551E0,6.972105923E0,9.873938763E0
5.556439417E0,2.395418604E-1,6.533236721E0,8.310481546E0,1.057377255E1
5.566420417E0,1.645914315E0,6.584639593E0,1.018818388E1,1.224196076E1
5.576402417E0,2.522208458E0,6.665337017E0,1.184147475E1,1.382059251E1
5.586383417E0,2.930883224E0,6.401849200E0,1.288119389E1,1.467988098E1
5.596364417E0,3.026191378E0,5.939219837E0,1.334516460E1,1.491729147E1
5.606346417E0,2.834457083E0,5.360061897E0,1.314916126E1,1.447980843E1
5.616327417E0,2.077085951E0,4.762294609E0,1.220342207E1,1.326337990E1
5.626309417E0,8.540409561E-1,4.104176454E0,1.059999509E1,1.139883969E1
5.636290417E0,-9.099758595E-2,3.397058632E0,8.477953404E0,9.133672964E0
5.646272417E0,-5.654257536E-3,2.400421189E0,5.785528697E0,6.263736597E0
5.656253417E0,6.164102581E-1,1.187719772E0,2.904604375E0,3.198025397E0
5.666235417E0,1.071056710E0,-7.086416066E-2,4.114714891E-1,1.149562087E0
5.676216417E0,1.068009142E0,-1.259406052E0,-1.376863165E0,2.149999839E0
5.686198417E0,2.196205428E-1,-2.097358832E0,-2.473967468E0,3.250794101E0
5.696179417E0,-8.575511858E-1,-2.532909155E0,-2.970357485E0,3.996754485E0
5.706160417E0,-1.143204335E0,-2.727255401E0,-3.341270932E0,4.461942359E0
5.716142417E0,-8.209329978E-1,-2.764012168E0,-3.883640530E0,4.836978190E0
5.726123417E0,-1.880897248E-1,-2.626737671E0,-4.627935534E0,5.324745613E0
5.736105417E0,4.963841701E-1,-2.451092575E0,-5.467279952E0,6.012104634E0
5.746086417E0,1.210758387E0,-2.367254028E0,-6.339357083E0,6.874392753E0
5.756068417E0,2.055148075E0,-2.401240969E0,-7.040770946E0,7.717645192E0
5.766049417E0,2.822711781E0,-2.454173473E0,-7.334474834E0,8.233176199E0
5.776031417E0,3.342831554E0,-2.447650319E0,-7.222605904E0,8.326556967E0
5.786012417E0,3.640323561E0,-2.400891305E0,-6.736609898E0,8.024845643E0
5.795993417E0,3.842464145E0,-2.502433468E0,-5.948845523E0,7.511023034E0
5.805975417E0,3.957901338E0,-2.792830170E0,-5.141257333E0,7.063809902E0
5.815956417E0,3.925250193E0,-3.139851310E0,-4.556621722E0,6.784471744E0
5.825938417E0,3.767307835E0,-3.462083763E0,-4.108993390E0,6.562199249E0
5.835919417E0,3.531223287E0,-3.676400004E0,-3.706716648E0,6.302793286E0
5.845901417E0,3.355761209E0,-3.845662279E0,-3.373468040E0,6.118050202E0
5.855882417E0,3.241368914E0,-3.958017113E0,-3.161784216E0,6.014087738E0
5.865864417E0,3.070105137E0,-4.045455206E0,-3.187497346E0,5.995948024E0
5.875845417E0,2.970495187E0,-4.077858136E0,-3.409439526E0,6.089092421E0
5.885827417E0,3.052158570E0,-4.012702612E0,-3.736048036E0,6.274990766E0
5.895808417E0,3.155422153E0,-3.900489866E0,-4.096589107E0,6.477079007E0
5.905789417E0,3.195783436E0,-3.691664745E0,-4.357635126E0,6.544494194E0
5.915771417E0,3.056909725E0,-3.247171690E0,-4.238261295E0,6.152371889E0
5.925752417E0,2.444540185E0,-2.518830814E0,-3.386514348E0,4.877372737E0
5.935734417E0,1.177530414E0,-1.721601552E0,-1.895345718E0,2.818301824E0
5.945715417E0,-6.980476213E-1,-9.128176063E-1,-1.207473421E-1,1.155459382E0
5.955697417E0,-3.405622464E0,-1.055048203E-1,1.974891824E0,3.938222105E0
5.965678417E0,-6.073175454E0,9.142338020E-1,4.527282148E0,7.629912659E0
5.975660417E0,-7.428783991E0,2.328764146E0,7.052515079E0,1.050466292E1
5.985641417E0,-7.603335657E0,3.276256911E0,8.386457343E0,1.178461876E1
5.995623417E0,-6.812644751E0,3.251168262E0,8.142323810E0,1.110313742E1
6.005604417E0,-5.232296727E0,2.958820344E0,7.175770292E0,9.360727864E0
6.015585417E0,-2.966245430E0,2.842429762E0,6.522345697E0,7.708372869E0
6.025567417E0,-9.094797233E-1,2.591497087E0,6.466472628E0,7.025544731E0
6.035548417E0,7.330180639E-1,2.330717116E0,6.133826868E0,6.602529046E0
6.045530417E0,2.589539731E0,2.259175263E0,5.052569690E0,6.110486835E0
6.055511417E0,3.910234836E0,2.018462936E0,3.902002541E0,5.881305376E0
6.065493417E0,4.208302208E0,1.227467390E0,3.779209258E0,5.787823968E0
6.075474417E0,3.618698511E0,2.501965106E-2,4.138108431E0,5.497230783E0
6.085456042E0,4.061196788E0,1.902157724E-1,3.919572254E0,5.647348763E0
6.095437042E0,3.926653817E0,-8.917003870E-3,3.982763699E0,5.592950598E0
6.105418042E0,2.155603532E0,-1.076931993E0,3.755844369E0,4.462373363E0
6.115400042E0,-5.713840663E-1,-1.670286680E0,2.717229180E0,3.240319701E0
6.125381042E0,-3.510820890E0,-1.504347669E0,1.624599752E0,4.150692664E0
6.135363042E0,-6.128859658E0,-9.114025801E-1,7.020903862E-1,6.235904608E0
6.145344042E0,-7.805460454E0,-3.293777508E-1,-2.530020046E-1,7.816502582E0
6.155326042E0,-8.384535363E0,9.558121830E-2,-1.332219674E0,8.490251956E0
6.165307042E0,-7.966370566E0,4.660838985E-1,-2.512273747E0,8.366111018E0
6.175289042E0,-6.696069397E0,6.653824434E-1,-3.632396198E0,7.646854341E0
6.185270042E0,-4.644167989E0,8.289474839E-1,-4.680697299E0,6.645628446E0
6.195252042E0,-2.276868938E0,1.153283181E0,-5.619549633E0,6.171995815E0
6.205233042E0,6.986779511E-2,1.378421448E0,-6.233931200E0,6.384890399E0
6.215214042E0,3.239288474E0,1.824459922E0,-5.967866516E0,7.031150302E0
6.225196042E0,4.871726419E0,2.232352623E0,-4.732857386E0,7.149619261E0
6.235177042E0,4.212544656E0,1.602672109E0,-3.563194985E0,5.745472032E0
6.245159042E0,3.900833098E0,1.086884539E0,-2.966128778E0,5.019535515E0
6.255140042E0,3.355325300E0,8.404568508E-1,-2.644203304E0,4.353893280E0
6.265122042E0,3.293894452E0,5.322869512E-1,-2.179341474E0,3.985297896E0
6.275103042E0,3.591303136E0,2.072835025E-1,-1.921786242E0,4.078441740E0
6.285085042E0,4.156240062E0,-2.791373044E-2,-1.897690451E0,4.569063326E0
6.295066042E0,4.627748423E0,-3.050562572E-1,-2.525165103E0,5.280679273E0
6.305048042E0,4.850357185E0,-7.703162831E-1,-3.217799372E0,5.871421020E0
6.315029042E0,4.938150789E0,-1.140996426E0,-3.494363317E0,6.156117368E0
6.325010042E0,4.717773909E0,-1.313050747E0,-3.546940895E0,6.046675337E0
6.334992042E0,4.282399002E0,-1.494549198E0,-3.453476661E0,5.700799906E0
6.344973042E0,3.576047165E0,-1.738019072E0,-3.238838239E0,5.128244998E0
6.354955042E0,2.688290141E0,-1.775213503E0,-2.872185073E0,4.315985861E0
6.364936042E0,1.691786014E0,-1.606580388E0,-2.342568253E0,3.306186093E0
6.374918042E0,6.211994201E-1,-1.440140271E0,-1.842886253E0,2.419942657E0
6.384899042E0,-5.687896568E-1,-1.343443404E0,-1.369804991E0,2.001181543E0
6.394881042E0,-1.847781542E0,-1.225751525E0,-1.037605959E0,2.448140019E0
6.404862042E0,-3.295300707E0,-1.060423841E0,-7.923538542E-1,3.551243459E0
6.414844042E0,-5.215206485E0,-8.146829090E-1,-4.333728200E-1,5.296215528E0
6.424825042E0,-7.429165814E0,-5.308789417E-1,2.010506630E-1,7.450822673E0
6.434806042E0,-9.085094948E0,-4.683608043E-1,1.104349587E0,9.163945660E0
6.444788042E0,-9.685300525E0,-6.415144014E-1,2.208368806E0,9.954570798E0
6.454769042E0,-9.175585873E0,-6.168797895E-1,3.134187112E0,9.715711278E0
6.464751042E0,-8.046783230E0,-4.401690388E-1,3.833439260E0,8.924109238E0
6.474732042E0,-7.013855628E0,-3.771556422E-1,4.507992768E0,8.346161749E0
6.484714042E0,-6.067579669E0,1.477591395E-2,5.576854434E0,8.241179936E0
6.494695042E0,-5.137015763E0,5.358484903E-1,7.053268200E0,8.742119700E0
6.504677042E0,-4.263428296E0,1.079971083E0,8.821310678E0,9.856910289E0
6.514658042E0,-3.728471798E0,1.704185912E0,1.039543960E1,1.117456559E1
6.524639042E0,-3.537019340E0,2.113232561E0,1.145042817E1,1.216916443E1
6.534621042E0,-3.583832733E0,2.389577820E0,1.170165846E1,1.246927223E1
6.544602042E0,-3.762901958E0,2.765666345E0,1.108721316E1,1.203057094E1
6.554584042E0,-3.908871850E0,3.075399498E0,9.483099130E0,1.070824590E1
6.564565042E0,-3.420417674E0,3.168778363E0,7.052888716E0,8.454800566E0
6.574547042E0,-2.564426817E0,2.963097874E0,4.455278950E0,5.933442882E0
6.584528042E0,-1.857415999E0,2.693057376E0,2.069928374E0,3.871324799E0
6.594510042E0,-1.407688517E0,2.467818828E0,2.615693450E-2,2.841197092E0
6.604491042E0,-1.293561392E0,2.205907128E0,-1.585031059E0,3.008596150E0
6.614473042E0,-1.509615426E0,1.884226945E0,-2.720153958E0,3.637098771E0
6.624454042E0,-1.664515185E0,1.529064142E0,-3.498479172E0,4.165093573E0
6.634435042E0,-1.307578338E0,1.105829810E0,-4.199172074E0,4.534938454E0
6.644417042E0,-2.703729129E-1,6.159933516E-1,-4.927936288E0,4.973641059E0
6.654398042E0,9.621336079E-1,1.444493231E-1,-5.563929749E0,5.648352055E0
6.664380042E0,2.110895137E0,-4.054915416E-1,-6.110736798E0,6.477762413E0
6.674361042E0,2.988706632E0,-9.200558746E-1,-6.426696943E0,7.147118562E0
6.684343042E0,3.716322161E0,-1.435454313E0,-6.565019261E0,7.679261513E0
6.694324042E0,4.369611101E0,-1.902986567E0,-6.574917428E0,8.120615631E0
6.704306042E0,4.954068080E0,-2.264384547E0,-6.466940989E0,8.455267806E0
6.714287042E0,5.271428633E0,-2.584601465E0,-6.358677453E0,8.654530808E0
6.724269042E0,5.279310679E0,-2.875497521E0,-6.222116901E0,8.651840611E0
6.734250042E0,5.049233268E0,-3.124383085E0,-6.019777511E0,8.455427106E0
6.744231042E0,4.600465607E0,-3.270172298E0,-5.709688556E0,8.028627159E0
6.754213042E0,4.022782920E0,-3.264799291E0,-5.421992682E0,7.499313400E0
6.764194042E0,3.442231296E0,-3.236832644E0,-5.331949069E0,7.124305070E0
6.774176042E0,3.006304120E0,-3.161623417E0,-5.300655355E0,6.865178387E0
6.784157042E0,2.718455049E0,-2.936448312E0,-5.226983362E0,6.582862721E0
6.794139042E0,2.273840080E0,-2.485492330E0,-4.949185070E0,5.986856745E0
6.804120042E0,1.507020724E0,-1.859063160E0,-4.307395849E0,4.927563931E0
6.814102042E0,6.646117803E-1,-1.058629623E0,-3.330746529E0,3.557566294E0
6.824083042E0,-8.747928706E-1,-2.676598048E-1,-2.289207147E0,2.465232991E0
6.834065042E0,-3.593697571E0,6.455904955E-1,-8.823243767E-1,3.756320756E0
6.844046042E0,-7.463751510E0,1.951205923E0,1.054434246E0,7.786309956E0
6.854027042E0,-1.225443084E1,3.429059274E0,3.671465539E0,1.324421315E1
6.864009042E0,-1.667588131E1,4.625690203E0,6.398740236E0,1.845063424E1
6.873990042E0,-1.806177433E1,5.018885635E0,8.003392212E0,2.038311046E1
6.883972042E0,-1.445395690E1,4.447941279E0,7.645042092E0,1.694543362E1
6.893953042E0,-9.610400031E0,3.699476625E0,6.566871074E0,1.221350530E1
6.903935042E0,-6.073952549E0,2.983190954E0,6.405672110E0,9.317991361E0
6.913916042E0,-3.537235979E0,3.322477396E0,7.086086283E0,8.588568753E0
6.923898042E0,-2.418043528E0,3.891181684E0,7.331402707E0,8.645096590E0
6.933879042E0,-1.991004996E0,3.732688810E0,6.977564884E0,8.159869996E0
6.943860042E0,-5.482019028E-1,3.231146227E0,6.635818518E0,7.401007949E0
6.953842042E0,1.214448418E0,2.591572516E0,5.784597820E0,6.453890688E0
6.963823042E0,1.748493189E0,1.328896701E0,4.311038080E0,4.838206713E0
6.973805042E0,1.375461880E0,-3.427988648E-2,2.809749089E0,3.128539665E0
6.983786042E0,8.400156784E-1,-1.112669005E0,1.782002705E0,2.262563214E0
6.993768042E0,5.806779233E-1,-2.062265598E0,1.035574636E0,2.379609438E0
7.003749042E0,5.219028810E-1,-3.126043110E0,2.137595862E-1,3.176510869E0
7.013731042E0,1.082005914E0,-4.135436254E0,-7.654449677E-1,4.342634662E0
7.023712042E0,2.542467014E0,-5.067585924E0,-1.931886138E0,5.989720333E0
7.033694042E0,4.420665772E0,-5.896071478E0,-3.258463833E0,8.057513965E0
7.043675042E0,6.095552748E0,-6.396305455E0,-4.429350057E0,9.883705211E0
7.053656042E0,7.007982100E0,-6.824364910E0,-5.381066265E0,1.116421263E1
7.063638042E0,7.149587045E0,-7.301993551E0,-6.192562149E0,1.194920628E1
7.073619042E0,6.807658246E0,-7.675620691E0,-6.967284894E0,1.240171047E1
7.083600792E0,6.177569888E0,-7.815469717E0,-7.604336116E0,1.253275167E1
7.093581792E0,5.550817952E0,-7.641329695E0,-7.951416897E0,1.234611397E1
7.103563792E0,5.094988316E0,-7.343156780E0,-8.007173606E0,1.199982027E1
7.113544792E0,4.612314697E0,-7.079946122E0,-7.808127369E0,1.150503963E1
7.123526792E0,4.001148222E0,-6.862430284E0,-7.311406984E0,1.079624048E1
7.133507792E0,3.082077895E0,-6.722542081E0,-6.612336100E0,9.920421608E0
7.143488792E0,1.571731275E0,-6.405382673E0,-6.013949007E0,8.925628776E0
7.153470792E0,4.532545227E-1,-5.367455117E0,-5.647178897E0,7.804206787E0
7.163451792E0,-3.100532877E-1,-4.212611314E0,-4.704438164E0,6.322496783E0
7.173433792E0,-1.004921778E0,-3.807667072E0,-3.627846479E0,5.354387583E0
7.183414792E0,-8.871834129E-1,-3.221196020E0,-2.685894536E0,4.286866882E0
7.193396792E0,-4.339476013E-1,-2.464468666E0,-1.679731979E0,3.013870576E0
7.203377792E0,-7.968351603E-2,-1.480191652E0,-1.281389828E0,1.959407227E0
7.213359792E0,-3.284090133E-1,-5.382122272E-1,-1.456257244E0,1.586886903E0
7.223340792E0,-9.430617446E-1,-4.601980913E-1,-1.232608262E0,1.618786850E0
7.233322792E0,-1.503842909E0,1.182821560E-1,5.987718397E-1,1.622979322E0
7.243303792E0,-2.461160896E0,2.254804469E0,3.251512079E0,4.659805462E0
7.253284792E0,-4.312916790E0,4.498302178E0,6.298863945E0,8.860680601E0
7.263266792E0,-6.260108600E0,5.891007789E0,9.142546765E0,1.254906745E1
7.273247792E0,-8.052885969E0,6.455990909E0,1.157182338E1,1.550599521E1
7.283229792E0,-9.007337505E0,6.638842698E0,1.346601953E1,1.750828499E1
7.293210792E0,-8.682007197E0,6.693814711E0,1.469465403E1,1.833350107E1
7.303192792E0,-7.585761266E0,6.979319633E0,1.439398084E1,1.770427522E1
7.313173792E0,-6.154738265E0,7.159288745E0,1.276435249E1,1.587655230E1
7.323155792E0,-4.560905392E0,6.059973611E0,1.078485949E1,1.318477654E1
7.333136792E0,-3.297033530E0,4.268279731E0,9.651429943E0,1.105616307E1
7.343117792E0,-2.227642398E0,2.274335924E0,9.933302575E0,1.043098723E1
7.353099792E0,-1.232517192E0,3.482487622E-1,1.039152899E1,1.047016000E1
7.363080792E0,-1.434826322E-1,-1.466936307E0,9.717692930E0,9.828837433E0
7.373062792E0,2.147617551E0,-2.157424940E0,8.391271355E0,8.926375439E0
7.383043792E0,5.412125505E0,-1.829473033E0,5.225707499E0,7.742486224E0
7.393025792E0,7.519522837E0,-1.876076511E0,1.250339359E0,7.850237913E0
7.403006792E0,8.752424630E0,-1.886416435E0,-1.802851537E0,9.133114339E0
7.412988792E0,9.843987526E0,-1.788154853E0,-4.119724785E0,1.082006102E1
7.422969792E0,1.086377819E1,-1.836405492E0,-5.838076454E0,1.246904962E1
7.432951792E0,1.162244272E1,-1.820481184E0,-6.886685704E0,1.363164578E1
7.442932792E0,1.190029773E1,-1.631297446E0,-7.210126777E0,1.400943060E1
7.452913792E0,1.114928603E1,-1.243988990E0,-6.948061588E0,1.319581932E1
7.462895792E0,8.968119060E0,-9.051954684E-1,-6.653164868E0,1.120317549E1
7.472876792E0,6.204949476E0,-5.167587930E-1,-6.632501392E0,9.097170569E0
7.482858792E0,3.387216891E0,-3.964751351E-1,-7.059803048E0,7.840360316E0
7.492839792E0,1.645782753E0,-3.475216609E-1,-7.853417562E0,8.031534074E0
7.502821792E0,8.799743807E-1,-4.715834972E-1,-8.715687743E0,8.772682529E0
7.512802792E0,1.030924638E0,-8.193676981E-1,-9.262317622E0,9.355463472E0
7.522784792E0,1.931846669E0,-1.717058265E0,-9.534897859E0,9.878997815E0
7.532765792E0,1.768762562E0,-2.330393765E0,-9.987020946E0,1.040672107E1
7.542747792E0,1.645398299E0,-2.369631506E0,-9.844375781E0,1.025837334E1
7.552728792E0,2.938020920E0,-2.142889639E0,-9.017598783E0,9.723221213E0
7.562709792E0,3.567219624E0,-2.701918539E0,-8.274505967E0,9.407064825E0
7.572691792E0,2.985803490E0,-3.477922116E0,-8.050728931E0,9.264189173E0
7.582672792E0,2.396043817E0,-3.301586464E0,-7.459651442E0,8.502229048E0
7.592654792E0,1.402204998E0,-3.239017748E0,-6.567821832E0,7.456118189E0
7.602635792E0,8.734132200E-2,-3.302295147E0,-5.538962722E0,6.449254979E0
7.612617792E0,-3.926304446E-1,-2.351758029E0,-4.207776251E0,4.836352497E0
7.622598792E0,-8.162306669E-1,-1.437252624E0,-2.755468801E0,3.213181589E0
7.632580792E0,-2.354515868E0,-3.533808634E-1,-8.992222452E-1,2.545039028E0
7.642561792E0,-5.009096811E0,2.189893359E-1,2.628331037E0,5.661018568E0
7.652542792E0,-7.236977191E0,4.142652887E-1,8.074622993E0,1.085103641E1
7.662524792E0,-9.500234395E0,7.136994481E-1,1.282831401E1,1.597903191E1
7.672505792E0,-1.153407609E1,-1.889317238E-1,1.565451307E1,1.944567782E1
7.682487792E0,-1.061429036E1,-9.157792211E-1,1.879722659E1,2.160642356E1
7.692468792E0,-6.304258586E0,-1.813563636E-1,2.049304309E1,2.144158067E1
7.702450792E0,-2.513118962E0,-3.526835829E-1,2.015931677E1,2.031842034E1
7.712431792E0,7.466716048E-1,-5.955754593E-1,1.844694680E1,1.847165598E1
7.722413792E0,3.618219624E0,1.431705371E-1,1.593058117E1,1.633693446E1
7.732394792E0,5.965052251E0,1.694177818E0,1.393090943E1,1.524868271E1
7.742376792E0,8.943751373E0,3.861491277E0,1.268881465E1,1.599711914E1
7.752357792E0,9.702859129E0,3.957676805E0,1.190258984E1,1.585813122E1
7.762338792E0,1.004790917E1,3.410866539E0,1.133855339E1,1.552923959E1
7.772320792E0,9.633203588E0,2.472639857E0,1.123988162E1,1.500824767E1
7.782301792E0,8.157860447E0,1.573024971E0,1.100883825E1,1.379201270E1
7.792283792E0,6.437482132E0,6.891961062E-1,1.021718373E1,1.209574350E1
7.802264792E0,4.851118492E0,-6.246232572E-1,8.993409437E0,1.023742732E1
7.812246792E0,3.115341828E0,-1.862138211E0,6.943268040E0,7.834659182E0
7.822227792E0,1.945829116E0,-2.370058352E0,4.448255859E0,5.402814797E0
7.832209792E0,1.173064823E0,-3.000536427E0,1.842281066E0,3.711239611E0
7.842190792E0,3.414399719E-1,-3.901607269E0,-6.854211438E-1,3.976043596E0
7.852171792E0,-3.130010153E-1,-4.835385097E0,-2.809728624E0,5.601204657E0
7.862153792E0,-8.615451995E-1,-5.903950016E0,-4.550447647E0,7.503696404E0
7.872134792E0,-1.141884107E0,-6.795101350E0,-6.018026270E0,9.148439313E0
7.882116792E0,-8.281160098E-1,-6.989977938E0,-7.536773293E0,1.031254185E1
7.892097792E0,-9.729620665E-1,-7.129454497E0,-9.114045097E0,1.161213136E1
7.902079792E0,-1.659558501E0,-7.207729418E0,-1.053639726E1,1.287327328E1
7.912060792E0,-2.497352237E0,-7.097276684E0,-1.168776782E1,1.390007270E1
7.922042792E0,-2.923342363E0,-7.096717106E0,-1.253363773E1,1.469698605E1
7.932023792E0,-2.586135775E0,-7.004809400E0,-1.297003999E1,1.496587419E1
7.942005792E0,-2.020101472E0,-6.702200788E0,-1.326468587E1,1.499840646E1
7.951986792E0,-1.473590584E0,-6.627602595E0,-1.355563864E1,1.516086819E1
7.961967792E0,-8.348752449E-1,-6.703827483E0,-1.385263626E1,1.541213324E1
7.971949792E0,9.344216064E-2,-6.253278467E0,-1.380141699E1,1.515227158E1
7.981930792E0,1.066589438E0,-5.820562289E0,-1.385466876E1,1.506547061E1
7.991912792E0,1.461016732E0,-5.886331186E0,-1.351904092E1,1.481714993E1
8.001893792E0,1.793577268E0,-5.733752187E0,-1.314009924E1,1.444835775E1
8.011875792E0,1.673042034E0,-5.678494830E0,-1.240976330E1,1.374942174E1
8.021856792E0,1.749776068E0,-5.196508843E0,-1.152899954E1,1.276648937E1
8.031838792E0,1.746800712E0,-4.658471448E0,-1.046755448E1,1.158975262E1
8.041819792E0,1.027839793E0,-4.381569534E0,-8.633782870E0,9.736365486E0
8.051800792E0,1.399206546E-1,-3.756285834E0,-6.395741783E0,7.418542580E0
8.061782792E0,-1.233526714E0,-2.993522984E0,-3.992599885E0,5.140391216E0
8.071763792E0,-3.216764415E0,-2.478874451E0,-9.236413872E-1,4.164793543E0
8.081745417E0,-4.906581672E0,-1.438966151E0,2.357859306E0,5.630689815E0
8.091726417E0,-5.400663793E0,5.228396049E-1,5.085936241E0,7.436886318E0
8.101708417E0,-4.705440377E0,2.568936482E0,7.539729645E0,9.251385135E0
8.111689417E0,-3.643146889E0,3.933551193E0,9.480516415E0,1.089153505E1
8.121671417E0,-2.913820464E0,5.171918378E0,1.059719427E1,1.214658865E1
8.131652417E0,-2.300778202E0,6.937984496E0,1.205240720E1,1.409573441E1
8.141633417E0,-2.356216239E0,7.924500409E0,1.462850448E1,1.680305344E1
8.151615417E0,-3.154290716E0,8.051083272E0,1.845780274E1,2.038283527E1
8.161596417E0,-3.036906985E0,8.073609670E0,2.015486119E1,2.192314774E1
8.171578417E0,-1.411751601E0,7.368415582E0,1.894652823E1,2.037786845E1
8.181559417E0,9.188773683E-1,6.382135313E0,1.759581673E1,1.874003077E1
8.191541417E0,2.610098249E0,5.848654068E0,1.722395487E1,1.837617992E1
8.201522417E0,2.331550637E0,5.095611044E0,1.707742247E1,1.797330628E1
8.211504417E0,1.267255062E0,4.405647491E0,1.603628713E1,1.667867412E1
8.221485417E0,1.132813540E0,4.039456840E0,1.366042191E1,1.429012263E1
8.231467417E0,1.867130271E0,3.365751470E0,1.025104261E1,1.094980973E1
8.241448417E0,1.872904396E0,2.260954571E0,6.641361094E0,7.261361004E0
8.251429417E0,1.019405623E0,1.455771925E0,3.516002693E0,3.939636361E0
8.261411417E0,1.839709461E-1,1.009998330E0,7.013156301E-1,1.243296244E0
8.271392417E0,-4.122167167E-1,1.966316298E-1,-1.932263868E0,1.985505043E0
8.281374417E0,-1.122366320E0,-5.144067505E-1,-3.792515182E0,3.988419720E0
8.291355417E0,-1.821814934E0,-8.655183095E-1,-4.807496510E0,5.213458956E0
8.301337417E0,-2.177356636E0,-1.070429597E0,-5.251865603E0,5.785222015E0
8.311318417E0,-2.419258871E0,-1.416794094E0,-5.433458487E0,6.114130365E0
8.321300417E0,-2.257503252E0,-1.651035014E0,-5.518895663E0,6.187119434E0
8.331281417E0,-1.621309524E0,-1.883722915E0,-5.439151336E0,5.980085605E0
8.341263417E0,-8.980703437E-1,-2.119243791E0,-5.367161586E0,5.839875691E0
8.351244417E0,-2.781339222E-1,-2.171819615E0,-5.298556205E0,5.733136731E0
8.361225417E0,3.458794704E-1,-2.070017837E0,-5.294982972E0,5.695739734E0
8.371207417E0,8.566185549E-1,-2.005325705E0,-5.394984393E0,5.819019086E0
8.381188417E0,1.176813253E0,-2.040692881E0,-5.661413943E0,6.131959287E0
8.391170417E0,1.353435711E0,-2.251564820E0,-6.169834607E0,6.705832643E0
8.401151417E0,1.551879101E0,-2.509492519E0,-6.867227340E0,7.474268712E0
8.411133417E0,1.863588905E0,-2.702864326E0,-7.612001815E0,8.289813677E0
8.421114417E0,2.146229276E0,-2.971020267E0,-8.390229966E0,9.155829859E0
8.431096417E0,2.370134659E0,-3.213977632E0,-9.004653048E0,9.850429789E0
8.441077417E0,2.576678196E0,-3.468602239E0,-9.543297969E0,1.047592517E1
8.451058417E0,2.761326250E0,-3.720794404E0,-1.001348310E1,1.103354329E1
8.461040417E0,2.928619475E0,-3.798364152E0,-1.032072622E1,1.138076324E1
8.471021417E0,3.128242248E0,-3.753496712E0,-1.049505277E1,1.157673398E1
8.481003417E0,3.172570574E0,-3.639244457E0,-1.047124758E1,1.153066912E1
8.490984417E0,3.204487601E0,-3.517510982E0,-1.009976813E1,1.116453942E1
8.500966417E0,3.403867714E0,-3.145901424E0,-9.315208611E0,1.040462026E1
8.510947417E0,3.208151174E0,-2.647154686E0,-7.939537109E0,8.963030257E0
8.520929417E0,2.308884782E0,-2.175176210E0,-5.951205459E0,6.743825835E0
8.530910417E0,8.789897096E-1,-1.450258293E0,-3.493862211E0,3.883676760E0
8.540892417E0,-9.551274741E-1,-2.001262182E-1,3.808338332E-1,1.047546373E0
8.550873417E0,-2.788161169E0,1.335223973E0,5.765254646E0,6.541775515E0
8.560854417E0,-3.954712559E0,3.089043099E0,1.101092454E1,1.210051230E1
8.570836417E0,-4.337233314E0,4.295550560E0,1.401582737E1,1.528747083E1
8.580817417E0,-4.572658296E0,4.683945428E0,1.523190556E1,1.657888704E1
8.590799417E0,-4.880188217E0,4.528948020E0,1.582220069E1,1.716594425E1
8.600780417E0,-3.661351610E0,4.191933221E0,1.576799232E1,1.672146470E1
8.610762417E0,-1.531402152E0,4.014192483E0,1.583357937E1,1.640613207E1
8.620743417E0,3.580457720E-1,3.705849506E0,1.574432279E1,1.617854189E1
8.630725417E0,2.079342391E0,3.374465575E0,1.582757194E1,1.631633281E1
8.640706417E0,3.082198348E0,2.581961448E0,1.631108639E1,1.679934555E1
8.650687417E0,3.784617932E0,1.457669347E0,1.682363460E1,1.730557176E1
8.660669417E0,4.261587008E0,4.065919876E-1,1.710678134E1,1.763429638E1
8.670650417E0,4.201844836E0,-4.730300984E-1,1.664116171E1,1.716995983E1
8.680632417E0,3.523923331E0,-1.037914692E0,1.525499738E1,1.569108816E1
8.690613417E0,1.979619152E0,-1.496064211E0,1.338516891E1,1.361322324E1
8.700595417E0,-1.538147353E0,-1.922031825E0,1.106393306E1,1.133449242E1
8.710576417E0,-5.575453441E0,-1.991665147E0,7.456091657E0,9.520804269E0
8.720558417E0,-8.547323016E0,-2.249663013E0,2.651287206E0,9.227515281E0
8.730539417E0,-9.948686600E0,-2.811076992E0,-2.280135192E0,1.058666781E1
8.740520417E0,-9.688652734E0,-3.209077080E0,-6.738209696E0,1.222994838E1
8.750502417E0,-8.290029155E0,-3.729976872E0,-1.043650811E1,1.384044841E1
8.760483417E0,-6.097315099E0,-4.565061008E0,-1.324770438E1,1.528131882E1
8.770465417E0,-3.883790511E0,-5.387173097E0,-1.502922001E1,1.643115690E1
8.780446417E0,-2.177786991E0,-5.821729978E0,-1.585862884E1,1.703324411E1
8.790428417E0,-9.500880513E-1,-6.066702002E0,-1.589946580E1,1.704407677E1
8.800409417E0,-4.582024366E-2,-6.499081380E0,-1.556392567E1,1.686641457E1
8.810391417E0,9.083418551E-1,-6.933183932E0,-1.502548013E1,1.657284458E1
8.820372417E0,2.015520325E0,-7.316273621E0,-1.451588009E1,1.637989489E1
8.830354417E0,3.093987504E0,-7.768420681E0,-1.419469136E1,1.647453737E1
8.840335417E0,3.995917887E0,-8.329633516E0,-1.379114694E1,1.659957494E1
8.850316417E0,4.732671737E0,-8.702411056E0,-1.302313037E1,1.636252012E1
8.860298417E0,5.243586531E0,-8.824151255E0,-1.201837524E1,1.580513171E1
8.870279417E0,5.402855330E0,-8.955025975E0,-1.093521362E1,1.513149804E1
8.880261417E0,5.325013686E0,-8.922511362E0,-9.943875511E0,1.438219872E1
8.890242417E0,5.120452355E0,-8.801105624E0,-9.045740848E0,1.361998238E1
8.900224417E0,4.745501406E0,-8.652060097E0,-7.868170672E0,1.262085723E1
8.910205417E0,4.200621598E0,-8.090900472E0,-6.188747426E0,1.101855194E1
8.920187417E0,3.400968373E0,-7.090135480E0,-3.755754907E0,8.714488046E0
8.930168417E0,2.256580269E0,-5.966222278E0,-9.479131794E-1,6.448759740E0
8.940149417E0,6.755273625E-1,-4.395611038E0,2.365703931E0,5.037289817E0
8.950131417E0,-1.674075968E0,-2.592235005E0,6.471326986E0,7.169399252E0
8.960112417E0,-3.519382383E0,-1.325943857E-1,1.014848245E1,1.074222182E1
8.970094417E0,-3.637304935E0,3.277946756E0,1.156380685E1,1.255772873E1
8.980075417E0,-3.074352846E0,6.535494915E0,1.044177528E1,1.269625969E1
8.990057417E0,-2.821496437E0,9.592019309E0,8.846422130E0,1.335016333E1
9.000038417E0,-2.383574484E0,1.230556123E1,7.549971628E0,1.463250957E1
9.010020417E0,-1.834742543E0,1.380644794E1,7.303423780E0,1.572654710E1
9.020001417E0,-1.840285411E0,1.453573957E1,8.644234768E0,1.701167746E1
9.029983417E0,-2.540230747E0,1.477142212E1,1.008103950E1,1.806308504E1
9.039964417E0,-3.218529982E0,1.393387748E1,1.104895717E1,1.807183807E1
9.049945417E0,-3.032935264E0,1.265941718E1,1.156435181E1,1.741246026E1
9.059927417E0,-1.762657192E0,1.134900353E1,1.111963597E1,1.598602970E1
9.069908417E0,1.346242467E-1,9.754994658E0,1.017898971E1,1.409928637E1
9.079891208E0,2.007338901E0,7.832940613E0,9.203834356E0,1.225132380E1
9.089872208E0,3.078906658E0,5.695546480E0,8.387934934E0,1.059605438E1
9.099854208E0,2.998908854E0,3.455622590E0,7.700534508E0,8.957288289E0
9.109835208E0,2.072596459E0,1.338507770E0,6.937072331E0,7.362759785E0
9.119817208E0,6.431627315E-1,-5.670945489E-1,5.811930630E0,5.874844012E0
9.129798208E0,-1.059854907E0,-2.189739577E0,4.157972007E0,4.817362666E0
9.139779208E0,-2.390640844E0,-3.350322422E0,2.309270698E0,4.719380800E0
9.149761208E0,-2.739271429E0,-4.136677617E0,3.539255315E-1,4.974029851E0
9.159742208E0,-2.452340663E0,-5.019226527E0,-1.558750749E0,5.799682194E0
9.169724208E0,-1.649609756E0,-5.776243903E0,-3.273033925E0,6.840976323E0
9.179705208E0,-5.780343971E-1,-6.213642531E0,-4.717468100E0,7.822913942E0
9.189687208E0,4.770807570E-1,-6.436415015E0,-5.730339167E0,8.630865036E0
9.199668208E0,1.558655439E0,-6.477468317E0,-6.502775066E0,9.309838136E0
9.209650208E0,2.515352890E0,-6.430220475E0,-7.254049891E0,1.001478783E1
9.219631208E0,3.308817131E0,-6.496806228E0,-7.994517893E0,1.081984650E1
9.229613208E0,4.159721494E0,-6.551072482E0,-8.908193285E0,1.181421776E1
9.239594208E0,5.055062358E0,-6.529662902E0,-1.000454856E1,1.297232226E1
9.249575208E0,5.792855258E0,-6.430873609E0,-1.111028394E1,1.408373944E1
9.259557208E0,6.439464923E0,-6.189305835E0,-1.195969609E1,1.492677279E1
9.269538208E0,6.854851123E0,-6.005610293E0,-1.244150198E1,1.542229913E1
9.279520208E0,6.929086788E0,-5.894864028E0,-1.251008514E1,1.546815748E1
9.289501208E0,6.768125221E0,-5.755512015E0,-1.211382168E1,1.502258677E1
9.299483208E0,6.483130760E0,-5.615686378E0,-1.133246410E1,1.421237702E1
9.309464208E0,6.114548013E0,-5.533063467E0,-1.036711569E1,1.324687044E1
9.319446208E0,5.698211056E0,-5.532162411E0,-9.367569258E0,1.228111493E1
9.329427208E0,5.269580913E0,-5.613112434E0,-8.261419898E0,1.129276640E1
9.339408208E0,4.764665070E0,-5.611883349E0,-7.124773800E0,1.024488505E1
9.349390208E0,4.337529475E0,-5.419333953E0,-5.842914441E0,9.073201838E0
9.359371208E0,4.031096783E0,-5.190921829E0,-4.596013244E0,8.019897035E0
9.369353208E0,3.728875256E0,-4.808405167E0,-2.983799064E0,6.777044177E0
9.379334208E0,2.814171338E0,-4.278511189E0,-6.194937873E-1,5.158390337E0
9.389316208E0,1.362002467E0,-3.259688825E0,2.690992724E0,4.440953028E0
9.399297208E0,-1.560779732E-1,-1.634460497E0,6.527003004E0,6.730348406E0
9.409279208E0,-2.421351882E0,3.437314957E-1,1.009681528E1,1.038878122E1
9.419260208E0,-5.748990031E0,2.982082906E0,1.298822366E1,1.451336139E1
9.429242208E0,-1.003128437E1,7.079339765E0,1.464890892E1,1.911371890E1
9.439223208E0,-1.456078320E1,1.257957345E1,1.469021482E1,2.420876881E1
9.449204208E0,-1.922100238E1,1.704867288E1,1.371966941E1,2.912616535E1
9.459186208E0,-2.234108834E1,1.931816205E1,1.259018498E1,3.210651602E1
9.469167208E0,-2.242681788E1,1.978282624E1,1.175052481E1,3.213093848E1
9.479149208E0,-1.999240449E1,2.028248719E1,1.132391079E1,3.064810728E1
9.489130208E0,-1.733078350E1,1.835607756E1,1.309268066E1,2.843800146E1
9.499112208E0,-1.413083743E1,1.432234076E1,1.628097206E1,2.588204131E1
9.509093208E0,-9.735411748E0,1.059678029E1,1.716235445E1,2.239679452E1
9.519075208E0,-4.317274135E0,7.647066398E0,1.577941544E1,1.805841721E1
9.529056208E0,2.580025434E-2,4.984556631E0,1.279134089E1,1.372825088E1
9.539037208E0,1.542821471E0,2.151932650E0,8.866366398E0,9.253300240E0
9.549019208E0,1.666346241E0,-2.319128519E-1,4.853641566E0,5.136957253E0
9.559000208E0,1.841708624E0,-2.456697716E0,1.136492901E0,3.273968607E0
9.568982208E0,2.514349216E0,-4.513477457E0,-1.933805779E0,5.516614498E0
9.578963208E0,3.433682082E0,-6.121502692E0,-4.116066182E0,8.136643575E0
9.588945208E0,4.121396212E0,-7.367715086E0,-5.766427013E0,1.022354209E1
9.598926208E0,4.795732496E0,-8.148851057E0,-6.846950950E0,1.167405504E1
9.608908208E0,5.355184150E0,-8.577695793E0,-7.536470992E0,1.261163183E1
9.618889208E0,5.568729143E0,-8.922387401E0,-8.021688734E0,1.322751796E1
9.628871208E0,5.386042246E0,-9.324133217E0,-8.274518246E0,1.358000602E1
9.638852208E0,5.028375081E0,-9.498136414E0,-8.315441739E0,1.358844077E1
9.648833208E0,4.275013969E0,-9.333769428E0,-8.162518923E0,1.311570476E1
9.658815208E0,2.868864439E0,-8.844273278E0,-8.118924422E0,1.234376307E1
9.668796208E0,1.349289451E0,-8.127080703E0,-8.426250569E0,1.178438464E1
9.678778208E0,1.820691392E-1,-7.528084331E0,-8.983749837E0,1.172232758E1
9.688759208E0,4.684555292E-2,-6.751244309E0,-9.831844028E0,1.192672005E1
9.698741208E0,7.272103170E-1,-6.356613970E0,-1.045274349E1,1.225541604E1
9.708722208E0,2.043294015E0,-6.150970320E0,-1.067940612E1,1.249236573E1
9.718703208E0,3.173171083E0,-6.159235944E0,-9.983783927E0,1.215241308E1
9.728685208E0,3.899004673E0,-6.387890142E0,-8.460547997E0,1.129549690E1
9.738666208E0,4.124001439E0,-6.491931989E0,-6.595468637E0,1.013177059E1
9.748648208E0,3.760452852E0,-6.694628059E0,-4.482419678E0,8.891070614E0
9.758629208E0,3.179557120E0,-6.646995471E0,-2.572799445E0,7.804577455E0
9.768611208E0,2.633154113E0,-6.283494539E0,-9.110377139E-1,6.873557588E0
9.778592208E0,2.078848302E0,-5.735675336E0,4.428760073E-1,6.116839133E0
9.788574208E0,1.234562986E0,-5.137102886E0,1.210362238E0,5.420235104E0
9.798555208E0,3.370443276E-1,-4.319998353E0,1.816605942E0,4.698514850E0
9.808537208E0,-2.936185187E-1,-2.799158027E0,2.117563886E0,3.522154782E0
9.818518208E0,-4.589172587E-1,-2.879467195E-1,1.904978421E0,1.980520423E0
9.828499208E0,-5.976664236E-1,2.941139533E0,1.358507001E0,3.294396482E0
9.838481208E0,-8.247401199E-1,6.498181493E0,4.941786003E-1,6.568924682E0
9.848462208E0,-1.368818274E0,1.023465988E1,-2.596122819E-1,1.032905247E1
9.858444208E0,-2.355364007E0,1.364431517E1,-2.334357592E-1,1.384808898E1
9.868425208E0,-4.519833380E0,1.549134886E1,1.639503720E0,1.622031922E1
9.878407208E0,-7.441890525E0,1.544908986E1,5.058564840E0,1.787862384E1
9.888388208E0,-9.455279247E0,1.504877778E1,8.254889728E0,1.959620429E1
9.898370208E0,-1.039917597E1,1.441511736E1,1.072988981E1,2.076220135E1
9.908351208E0,-1.082018720E1,1.326168391E1,1.321483601E1,2.162361214E1
9.918332208E0,-9.430013428E0,1.158718168E1,1.500138610E1,2.117143163E1
9.928314208E0,-7.317542467E0,9.790136424E0,1.581430695E1,1.998713344E1
9.938295208E0,-5.069397392E0,7.958303747E0,1.532964060E1,1.800086857E1
9.948277208E0,-2.758831827E0,6.105677202E0,1.324233664E1,1.484081961E1
9.958258208E0,-1.095764705E0,4.282735802E0,9.965828297E0,1.090230526E1
9.968240208E0,-5.249747157E-2,2.360802210E0,5.600423391E0,6.077901383E0
9.978221208E0,8.099200594E-1,5.308447355E-1,7.198898953E-1,1.206651606E0
9.988203208E0,1.641109366E0,-9.885185838E-1,-3.411508856E0,3.912646370E0
9.998184208E0,2.300208391E0,-2.037043049E0,-6.390847079E0,7.091080976E0
1.000816621E1,2.965867700E0,-2.633462554E0,-8.332450705E0,9.228284292E0
1.001814721E1,3.585601808E0,-3.036543873E0,-9.555583554E0,1.064830109E1
1.002812821E1,4.143167150E0,-3.485279083E0,-1.024281792E1,1.158569477E1
1.003811021E1,4.950756801E0,-3.856189606E0,-1.024495098E1,1.201412551E1
1.004809121E1,5.614923316E0,-4.604274191E0,-9.662563627E0,1.208684576E1
1.005807321E1,5.874522150E0,-5.741992668E0,-8.448803279E0,1.178400472E1
1.006805421E1,5.835659215E0,-6.955956498E0,-6.786674343E0,1.133574867E1
1.007803621E1,5.806288067E0,-7.983593540E0,-5.014441166E0,1.107227922E1
1.008801679E1,5.983116639E0,-8.703533136E0,-3.494824662E0,1.112488082E1
1.009799879E1,6.171458378E0,-9.134729623E0,-2.394859902E0,1.128120285E1
1.010797979E1,5.984127622E0,-9.609419453E0,-1.878566548E0,1.147517921E1
1.011796079E1,5.758558999E0,-9.945150204E0,-1.757964801E0,1.162572383E1
1.012794279E1,5.608141131E0,-9.894658327E0,-2.028676268E0,1.155296662E1
1.013792379E1,5.568205233E0,-9.646396660E0,-2.697203051E0,1.146005159E1
1.014790579E1,5.442786550E0,-9.472941931E0,-3.626529686E0,1.151139748E1
1.015788679E1,5.198476431E0,-9.363573271E0,-4.434739728E0,1.159170298E1
1.016786879E1,4.837112657E0,-9.257588394E0,-4.850546635E0,1.151644061E1
1.017784979E1,4.501966335E0,-9.095591285E0,-4.772864621E0,1.121506658E1
1.018783179E1,4.249308732E0,-8.824566407E0,-4.202493877E0,1.065788683E1
1.019781279E1,3.960725835E0,-8.459997189E0,-3.495665492E0,9.973894867E0
1.020779379E1,3.730823841E0,-8.076743778E0,-2.745408667E0,9.310752136E0
1.021777579E1,3.562792405E0,-7.448922386E0,-1.736914971E0,8.437820101E0
1.022775679E1,3.191120281E0,-6.081597199E0,-3.961687410E-1,6.879391166E0
1.023773879E1,2.276920978E0,-3.815770143E0,9.148316798E-1,4.536671459E0
1.024771979E1,3.978778821E-1,-1.280990463E0,1.570663720E0,2.065484906E0
1.025770179E1,-2.904572800E0,1.341228479E0,1.980435423E0,3.762653512E0
1.026768279E1,-7.397306675E0,4.538858466E0,2.237284896E0,8.962523412E0
1.027766479E1,-1.190300149E1,7.671569740E0,2.576083242E0,1.439342320E1
1.028764579E1,-1.504921047E1,9.746254824E0,3.005992756E0,1.817977479E1
1.029762779E1,-1.544325668E1,1.102210909E1,3.142576112E0,1.923166270E1
1.030760879E1,-1.235868670E1,1.192259200E1,3.365542724E0,1.749892039E1
1.031758979E1,-7.322689186E0,1.237077874E1,3.855178915E0,1.488355966E1
1.032757179E1,-3.660292679E0,1.211257622E1,5.958082954E0,1.398610016E1
1.033755279E1,-3.041474538E0,1.080209942E1,9.774991550E0,1.488241845E1
1.034753479E1,-4.147813055E0,8.641442723E0,1.293475555E1,1.609927907E1
1.035751579E1,-5.391783042E0,6.323834479E0,1.380612166E1,1.611431669E1
1.036749779E1,-6.278033239E0,4.032546308E0,1.264476055E1,1.468213542E1
1.037747879E1,-6.723325024E0,2.211302939E0,1.034130608E1,1.253138346E1
1.038746079E1,-6.480015948E0,1.010123461E0,7.326179974E0,9.832795590E0
1.039744179E1,-5.751254073E0,7.742005885E-2,3.983685220E0,6.996618126E0
1.040742279E1,-4.400618008E0,-5.225153768E-1,6.177717823E-1,4.474382991E0
1.041740479E1,-2.717634977E0,-7.567869955E-1,-2.651857017E0,3.871771179E0
1.042738579E1,-8.904233551E-1,-6.043594390E-1,-5.795066675E0,5.894141316E0
1.043736779E1,7.500299531E-1,-3.305968952E-1,-8.395751492E0,8.435667274E0
1.044734879E1,1.860496312E0,-1.637898660E-1,-9.917940770E0,1.009226549E1
1.045733079E1,2.339957471E0,-3.395443046E-1,-1.038107183E1,1.064694057E1
1.046731179E1,2.771943916E0,-7.492224526E-1,-1.005724133E1,1.045911614E1
1.047729379E1,3.430338644E0,-1.205481859E0,-8.891912298E0,9.606587013E0
1.048727479E1,4.051667873E0,-1.640828699E0,-7.642513171E0,8.804336372E0
1.049725579E1,4.736952192E0,-2.015034129E0,-6.839598076E0,8.560325955E0
1.050723779E1,5.551963422E0,-2.578874702E0,-6.317945749E0,8.797234284E0
1.051721879E1,6.345466254E0,-3.385253103E0,-6.032586422E0,9.387064477E0
1.052720079E1,6.808288575E0,-4.148247503E0,-5.901622825E0,9.919168445E0
1.053718179E1,6.980300796E0,-4.630184957E0,-5.646776024E0,1.010194493E1
1.054716379E1,6.958273165E0,-4.889694328E0,-5.343241796E0,1.004374975E1
1.055714479E1,6.748263398E0,-5.058904563E0,-4.962131975E0,9.785414044E0
1.056712679E1,6.263413446E0,-5.283938166E0,-4.497869776E0,9.347790277E0
1.057710779E1,5.522557774E0,-5.510518942E0,-4.055341678E0,8.792625291E0
1.058708979E1,4.616652161E0,-5.626769775E0,-3.345158746E0,8.010249829E0
1.059707079E1,3.650323761E0,-5.619482975E0,-2.321473253E0,7.091733958E0
1.060705179E1,2.482687420E0,-5.333470514E0,-1.211841584E0,6.006513513E0
1.061703379E1,8.607949287E-1,-4.789313423E0,1.408939236E-1,4.868094296E0
1.062701479E1,-8.397086996E-1,-3.995629327E0,1.582314443E0,4.378799312E0
1.063699679E1,-2.354263853E0,-2.916966559E0,2.806918744E0,4.682952598E0
1.064697779E1,-3.871750216E0,-1.393083926E0,3.573754472E0,5.450032440E0
1.065695979E1,-5.371512499E0,4.226057571E-1,3.999867974E0,6.710490740E0
1.066694079E1,-6.347055527E0,2.369740849E0,3.945232760E0,7.840003003E0
1.067692279E1,-7.090506193E0,4.470793367E0,3.526365128E0,9.093872796E0
1.068690379E1,-8.421238335E0,6.420981874E0,3.090972680E0,1.103178931E1
1.069688479E1,-1.032293413E1,7.737086037E0,2.619063785E0,1.316377471E1
1.070686679E1,-1.175355133E1,8.300286925E0,2.586236347E0,1.461948530E1
1.071684779E1,-1.211692538E1,8.211940759E0,3.065162485E0,1.495496816E1
1.072682979E1,-1.140508067E1,7.366411157E0,3.670649267E0,1.406462031E1
1.073681079E1,-1.003992889E1,6.042383432E0,4.895444480E0,1.269944669E1
1.074679279E1,-8.259590889E0,4.495454584E0,6.271723509E0,1.130329462E1
1.075677379E1,-6.342097088E0,3.095578532E0,6.520219064E0,9.608228690E0
1.076675579E1,-4.359693346E0,1.775602927E0,5.219697146E0,7.028864071E0
1.077673679E1,-2.035433310E0,6.693670285E-1,2.885923106E0,3.594383557E0
1.078671779E1,3.378889579E-1,-4.837518454E-2,2.620800993E-1,4.303429850E-1
1.079669979E1,2.699447798E0,-4.675445330E-1,-2.124483189E0,3.466849452E0
1.080668079E1,5.137189425E0,-6.860122973E-1,-4.137614634E0,6.631831038E0
1.081666279E1,7.257661716E0,-1.038744412E0,-5.563090088E0,9.203293697E0
1.082664379E1,8.396402287E0,-1.834235297E0,-6.022463138E0,1.049447725E1
1.083662579E1,8.516821015E0,-2.686523112E0,-5.140180276E0,1.030413024E1
1.084660679E1,8.093312448E0,-3.053434140E0,-3.284445351E0,9.252715693E0
1.085658879E1,7.590727306E0,-2.761955702E0,-1.662753127E0,8.246956305E0
1.086656979E1,7.100306126E0,-2.178798267E0,-7.999458790E-1,7.470034966E0
1.087655079E1,6.833270804E0,-1.840041583E0,-9.546760690E-1,7.140780721E0
1.088653279E1,7.125126387E0,-2.138339043E0,-2.241471648E0,7.769434667E0
1.089651379E1,7.861968530E0,-2.724065160E0,-3.934394946E0,9.203833102E0
1.090649579E1,8.464553339E0,-3.190041470E0,-5.624954215E0,1.065200158E1
1.091647679E1,8.984256206E0,-3.376029705E0,-7.432338513E0,1.213894937E1
1.092645879E1,8.759018535E0,-3.486323980E0,-8.810384570E0,1.290340021E1
1.093643979E1,7.757943056E0,-3.379014709E0,-9.291611588E0,1.256731741E1
1.094642179E1,6.279980362E0,-3.023502243E0,-9.247603689E0,1.158006447E1
1.095640279E1,4.553125087E0,-2.499769476E0,-8.719318864E0,1.014920277E1
1.096638379E1,2.665639197E0,-1.849331639E0,-7.608416888E0,8.271255489E0
1.097636579E1,6.692559314E-1,-1.116162132E0,-6.016474419E0,6.155622295E0
1.098634679E1,-1.595892262E0,-2.746489817E-1,-4.222290210E0,4.522171911E0
1.099632879E1,-4.282961504E0,6.562166405E-1,-2.461081374E0,4.983101550E0
1.100630979E1,-7.609393373E0,1.659707605E0,-4.692875880E-1,7.802418066E0
1.101629179E1,-1.105722747E1,2.956118345E0,1.935317576E0,1.160803037E1
1.102627279E1,-1.428802228E1,4.448893206E0,4.164514749E0,1.553330018E1
1.103625479E1,-1.760257962E1,5.618862585E0,5.973023175E0,1.941904817E1
1.104623579E1,-2.041839754E1,6.236163667E0,7.278860212E0,2.255620760E1
1.105621779E1,-2.141766330E1,6.468104001E0,8.248640224E0,2.384518266E1
1.106619879E1,-1.980729801E1,6.251581605E0,8.935454174E0,2.261091923E1
1.107617979E1,-1.599463391E1,5.738177360E0,9.534064046E0,1.948469580E1
1.108616192E1,-1.165070817E1,5.185320196E0,1.046230018E1,1.649503778E1
1.109614292E1,-8.247925694E0,4.741148738E0,1.175487046E1,1.512229312E1
1.110612492E1,-6.178123035E0,4.397331873E0,1.246465813E1,1.459018280E1
1.111610592E1,-5.084508351E0,4.021761119E0,1.183109126E1,1.349079346E1
1.112608792E1,-4.269330475E0,3.458690039E0,9.905661618E0,1.132748214E1
1.113606892E1,-3.373344664E0,2.836025307E0,7.214388812E0,8.453987207E0
1.114605092E1,-2.467551903E0,2.460343455E0,4.369827448E0,5.589051282E0
1.115603192E1,-1.539931485E0,1.993324002E0,1.639009046E0,3.005175570E0
1.116601292E1,-5.667185730E-1,1.208894879E0,-8.793440509E-1,1.598700325E0
1.117599492E1,5.230059582E-1,3.787721050E-1,-2.971799116E0,3.041150033E0
1.118597592E1,1.653345249E0,-3.857525110E-1,-4.573976258E0,4.878894785E0
1.119595792E1,2.719228928E0,-1.136063715E0,-6.073359057E0,6.750595304E0
1.120593892E1,3.905247746E0,-1.828520229E0,-7.088745596E0,8.297274270E0
1.121592092E1,5.221394593E0,-2.365859467E0,-7.615065756E0,9.531499304E0
1.122590192E1,6.382337041E0,-2.864074400E0,-7.700421072E0,1.040353944E1
1.123588392E1,7.190265539E0,-3.465865742E0,-7.377917308E0,1.086948976E1
1.124586492E1,7.795403827E0,-4.049828923E0,-6.861180734E0,1.114653472E1
1.125584592E1,8.255996021E0,-4.541735880E0,-6.304717593E0,1.133747322E1
1.126582792E1,8.606647112E0,-4.980108654E0,-5.890680930E0,1.155750745E1
1.127580892E1,8.859214084E0,-5.360912667E0,-5.738187300E0,1.183857476E1
1.128579092E1,9.164251045E0,-5.736363553E0,-6.051657701E0,1.238999294E1
1.129577192E1,9.401690685E0,-6.038583911E0,-6.571679825E0,1.296315005E1
1.130575392E1,9.471687704E0,-6.226205859E0,-7.089081227E0,1.336912787E1
1.131573492E1,9.321920630E0,-6.378094887E0,-7.303182290E0,1.345045613E1
1.132571692E1,9.021389533E0,-6.335613695E0,-7.251942555E0,1.319530753E1
1.133569792E1,8.816474445E0,-6.107867569E0,-7.290418988E0,1.296867290E1
1.134567892E1,8.625211437E0,-5.888177737E0,-7.465088768E0,1.283715154E1
1.135566092E1,8.450489616E0,-5.729997105E0,-7.667605913E0,1.276854816E1
1.136564192E1,8.120582108E0,-5.498219908E0,-7.747178332E0,1.249772171E1
1.137562392E1,7.646470567E0,-5.217883340E0,-7.549489233E0,1.194527548E1
1.138560492E1,7.070048540E0,-4.982685522E0,-7.211468128E0,1.126135045E1
1.139558692E1,6.531133477E0,-4.779670780E0,-6.654288118E0,1.047761937E1
1.140556792E1,5.771006552E0,-4.492678326E0,-5.826783142E0,9.350939896E0
1.141554992E1,4.712848215E0,-3.952084528E0,-4.847601685E0,7.831293156E0
1.142553092E1,3.349074041E0,-3.274285814E0,-3.556081555E0,5.880727893E0
1.143551192E1,1.755288531E0,-2.548489646E0,-1.983375549E0,3.675542936E0
1.144549392E1,-7.767616689E-1,-1.652924250E0,1.935983866E-2,1.826442463E0
1.145547492E1,-4.070586539E0,-5.781814545E-1,2.397040037E0,4.759177398E0
1.146545692E1,-7.248710799E0,8.247784191E-1,4.279841138E0,8.458197671E0
1.147543792E1,-1.001687800E1,2.828160217E0,4.774453894E0,1.145127700E1
1.148541992E1,-1.273568242E1,5.315993772E0,3.816641963E0,1.431866447E1
1.149540092E1,-1.624645945E1,7.582718375E0,3.034986175E0,1.818395457E1
1.150538292E1,-2.165417148E1,9.182430623E0,4.548671848E0,2.395643108E1
1.151536392E1,-2.734137457E1,1.052820180E1,8.506496587E0,3.050826578E1
1.152534492E1,-3.172410127E1,1.123183586E1,1.393911424E1,3.642624938E1
1.153532692E1,-3.286406975E1,1.019430942E1,2.005677765E1,3.982769583E1
1.154530792E1,-2.928961537E1,7.529127474E0,2.522815341E1,3.938310619E1
1.155528992E1,-2.195826178E1,4.416676509E0,2.781004761E1,3.570813689E1
1.156527092E1,-1.274691609E1,2.430414774E0,2.777209685E1,3.065420279E1
1.157525292E1,-3.937142553E0,1.744089943E0,2.591714486E1,2.627244448E1
1.158523392E1,1.905837961E0,1.202799157E0,2.291469084E1,2.302524702E1
1.159521592E1,4.224304576E0,-2.401276052E-1,1.895075810E1,1.941735417E1
1.160519692E1,3.700899838E0,-1.566341019E0,1.424459150E1,1.480062400E1
1.161517792E1,2.027413269E0,-2.074626027E0,8.971121605E0,9.428441047E0
1.162515992E1,5.385548741E-1,-2.655939835E0,3.185519818E0,4.182295335E0
1.163514092E1,-3.467825729E-1,-3.586565137E0,-2.474534940E0,4.371158977E0
1.164512292E1,-6.402432168E-1,-4.631122266E0,-7.203794242E0,8.587890096E0
1.165510392E1,-8.056919378E-1,-5.978732981E0,-1.108297393E1,1.261850620E1
1.166508592E1,-1.332095128E-1,-7.419658241E0,-1.323996969E1,1.517780849E1
1.167506692E1,1.666689765E0,-8.648689177E0,-1.409030219E1,1.661668725E1
1.168504892E1,4.174277553E0,-9.798332466E0,-1.342897391E1,1.713969815E1
1.169502992E1,6.571822497E0,-1.074546095E1,-1.148037877E1,1.704267816E1
1.170501092E1,8.454339423E0,-1.105457517E1,-9.967788284E0,1.711830280E1
1.171499292E1,9.455392683E0,-1.120178935E1,-9.214456993E0,1.731446659E1
1.172497392E1,9.653078274E0,-1.145717000E1,-9.067212408E0,1.751179618E1
1.173495592E1,9.551030912E0,-1.183380086E1,-9.290048627E0,1.782038265E1
1.174493692E1,9.651393691E0,-1.248862235E1,-9.775272217E0,1.856531808E1
1.175491892E1,9.796593504E0,-1.293089054E1,-1.032143256E1,1.922792617E1
1.176489992E1,9.675184842E0,-1.311265007E1,-1.035914009E1,1.930964984E1
1.177488192E1,9.331024745E0,-1.328050492E1,-9.894485250E0,1.900896294E1
1.178486292E1,8.687997084E0,-1.344799491E1,-9.114202972E0,1.842277276E1
1.179484392E1,7.840665954E0,-1.342124506E1,-8.017937161E0,1.748980211E1
1.180482592E1,6.782698236E0,-1.360067155E1,-6.662303481E0,1.659426256E1
1.181480692E1,5.532606214E0,-1.379025466E1,-4.923253838E0,1.565309182E1
1.182478892E1,4.755987802E0,-1.331353000E1,-2.791323635E0,1.441044720E1
1.183476992E1,4.327321406E0,-1.234820732E1,-6.439743251E-1,1.310032967E1
1.184475192E1,3.532171413E0,-1.069697818E1,1.679097264E0,1.138951029E1
1.185473292E1,1.348463239E0,-8.226418465E0,4.546093518E0,9.495224070E0
1.186471492E1,-2.718409148E0,-4.746070924E0,8.204805402E0,9.860718493E0
1.187469592E1,-8.503219222E0,-2.733508998E-1,1.197583207E1,1.469013314E1
1.188467692E1,-1.477350022E1,4.022526519E0,1.513813961E1,2.153137941E1
1.189465892E1,-2.098787892E1,7.279343777E0,1.782733607E1,2.848321995E1
1.190463992E1,-2.503646999E1,9.693120591E0,1.911520519E1,3.295713103E1
1.191462192E1,-2.604334181E1,1.179087060E1,1.845742150E1,3.402876270E1
1.192460292E1,-2.400659054E1,1.325318907E1,1.633136570E1,3.191671843E1
1.193458492E1,-2.052412221E1,1.373931021E1,1.371871748E1,2.825263611E1
1.194456592E1,-1.713112681E1,1.343269391E1,1.184088535E1,2.478143130E1
1.195454792E1,-1.339770184E1,1.233828810E1,1.043475862E1,2.099085408E1
1.196452892E1,-8.980052058E0,1.101955971E1,9.212363105E0,1.693929352E1
1.197450992E1,-4.638077529E0,9.832273214E0,8.182133408E0,1.360634656E1
1.198449192E1,-1.186318780E0,8.741484489E0,7.430584348E0,1.153405770E1
1.199447292E1,8.435731244E-1,7.513454012E0,6.842173775E0,1.019700685E1
1.200445492E1,1.602359283E0,6.112610246E0,6.187979686E0,8.844357065E0
1.201443592E1,1.739810366E0,4.647736545E0,5.194880394E0,7.184370355E0
1.202441792E1,1.827037960E0,3.077781946E0,3.733553613E0,5.172062644E0
1.203439892E1,2.203009248E0,1.543392452E0,1.968565722E0,3.333250817E0
1.204438092E1,2.885835398E0,5.481706202E-2,-2.266351551E-2,2.886444957E0
1.205436192E1,3.724764664E0,-1.523561620E0,-1.937159742E0,4.466284773E0
1.206434292E1,4.698562882E0,-3.225617099E0,-3.533389096E0,6.705664570E0
1.207432492E1,5.962000004E0,-4.946000676E0,-4.698042772E0,9.059799812E0
1.208430629E1,7.554655833E0,-6.347180073E0,-5.283584994E0,1.119266680E1
1.209428829E1,9.111550090E0,-7.502765887E0,-5.479223474E0,1.301282947E1
1.210426929E1,1.045154364E1,-8.544643822E0,-5.371626520E0,1.452928332E1
1.211425129E1,1.158676769E1,-9.330652862E0,-5.152592161E0,1.574368046E1
1.212423229E1,1.241624201E1,-9.789217826E0,-5.046369302E0,1.659691822E1
1.213421429E1,1.289400631E1,-9.976449180E0,-5.325272718E0,1.715061125E1
1.214419529E1,1.302134931E1,-1.008142307E1,-5.901460272E0,1.749336624E1
1.215417629E1,1.291863829E1,-1.012874810E1,-6.570213343E0,1.768192457E1
1.216415829E1,1.263486239E1,-1.008501209E1,-7.266838921E0,1.772439461E1
1.217413929E1,1.187613938E1,-1.007192719E1,-7.766772351E0,1.740141249E1
1.218412129E1,1.102937367E1,-9.872352369E0,-7.964242179E0,1.680891366E1
1.219410229E1,1.009256553E1,-9.443384841E0,-7.871152167E0,1.590573584E1
1.220408429E1,8.831084883E0,-8.845628078E0,-7.221002013E0,1.443523697E1
1.221406529E1,7.187038461E0,-7.862771353E0,-6.124470153E0,1.228762914E1
1.222404729E1,4.968449891E0,-6.284920675E0,-4.871286709E0,9.376308250E0
1.223402829E1,1.573540696E0,-4.192345449E0,-3.500440328E0,5.683737606E0
1.224400929E1,-3.329408686E0,-1.791292761E0,-1.834025529E0,4.202063968E0
1.225399129E1,-9.502180349E0,6.017474878E-1,-3.493784443E-3,9.521215449E0
1.226397229E1,-1.650059699E1,2.936493920E0,1.330980649E0,1.681262047E1
1.227395429E1,-2.296612295E1,5.248595256E0,2.259704436E0,2.366636473E1
1.228393529E1,-2.658242937E1,7.316629132E0,2.622901313E0,2.769545494E1
1.229391729E1,-2.515864171E1,9.490304654E0,1.976147221E0,2.696160776E1
1.230389829E1,-2.021985884E1,1.199080094E1,9.544575293E-1,2.352728177E1
1.231388029E1,-1.561791301E1,1.338159860E1,-7.860397384E-2,2.056678309E1
1.232386129E1,-1.260656303E1,1.378705857E1,5.625563787E-1,1.869023502E1
1.233384229E1,-1.035323440E1,1.403130612E1,2.775302264E0,1.765699059E1
1.234382429E1,-8.017567617E0,1.423249946E1,4.508986795E0,1.694627963E1
1.235380529E1,-6.137976637E0,1.383824744E1,4.971052487E0,1.593371307E1
1.236378729E1,-4.550150608E0,1.273977781E1,4.672951785E0,1.431231245E1
1.237376829E1,-2.497363932E0,1.130516813E1,4.173931983E0,1.230712644E1
1.238375029E1,-6.335551715E-1,9.624064389E0,4.099678191E0,1.048004622E1
1.239373129E1,3.458265531E-1,7.657270959E0,4.402546420E0,8.839446223E0
1.240371329E1,1.077759374E0,5.525517050E0,4.715612778E0,7.343698510E0
1.241369429E1,1.877952590E0,3.513160946E0,4.711401613E0,6.169790185E0
1.242367529E1,2.657903915E0,1.478567296E0,4.364579572E0,5.319790344E0
1.243365729E1,3.329248472E0,-4.552057385E-1,3.736642113E0,5.025296203E0
1.244363829E1,3.925107229E0,-2.021942030E0,3.011849327E0,5.344712593E0
1.245362029E1,4.576391743E0,-3.292192912E0,2.130818939E0,6.026797235E0
1.246360129E1,5.486196864E0,-4.200747898E0,8.450922310E-1,6.961236945E0
1.247358329E1,6.594205638E0,-4.728515244E0,-5.760440049E-1,8.134754520E0
1.248356429E1,7.581468825E0,-5.149830521E0,-1.879222898E0,9.355795136E0
1.249354629E1,8.395279621E0,-5.527166550E0,-3.058337323E0,1.050636555E1
1.250352729E1,9.083960588E0,-5.887511154E0,-4.076985147E0,1.156732188E1
1.251350829E1,9.730985990E0,-6.244307669E0,-4.887894555E0,1.255288731E1
1.252349029E1,1.033743756E1,-6.563901274E0,-5.624400483E0,1.347521043E1
1.253347129E1,1.108155423E1,-6.715641198E0,-6.420887734E0,1.446127519E1
1.254345329E1,1.175078443E1,-6.801959549E0,-7.280864637E0,1.540644600E1
1.255343429E1,1.229214421E1,-6.780260532E0,-7.865412540E0,1.609140941E1
1.256341629E1,1.239307066E1,-6.666123467E0,-7.981715414E0,1.617816997E1
1.257339729E1,1.183227941E1,-6.513278419E0,-7.593654422E0,1.549481266E1
1.258337929E1,1.071765042E1,-6.216322895E0,-6.781322971E0,1.412434218E1
1.259336029E1,9.725723496E0,-5.717544875E0,-5.987783886E0,1.277237538E1
1.260334129E1,8.890521246E0,-5.315390339E0,-5.389872172E0,1.167670606E1
1.261332329E1,7.927544469E0,-5.239659541E0,-4.579280852E0,1.054845043E1
1.262330429E1,6.978464186E0,-5.004949381E0,-3.673986858E0,9.340592065E0
1.263328629E1,5.853693198E0,-4.551674978E0,-2.792141368E0,7.923352988E0
1.264326729E1,4.551716493E0,-4.023009499E0,-1.787061716E0,6.332165351E0
1.265324929E1,2.843976350E0,-3.505825614E0,-7.001759347E-1,4.568288635E0
1.266323029E1,6.764626247E-1,-2.960302028E0,5.208050662E-1,3.080945909E0
1.267321229E1,-1.808678287E0,-2.246978556E0,1.718742848E0,3.357723448E0
1.268319329E1,-4.838538793E0,-1.527141286E0,2.942312484E0,5.865221301E0
1.269317429E1,-7.485323642E0,-8.058123904E-1,4.183847691E0,8.613012547E0
1.270315629E1,-8.871465170E0,-9.489621699E-2,5.025401187E0,1.019639920E1
1.271313729E1,-8.923402478E0,4.956871819E-1,5.374694554E0,1.042881389E1
1.272311929E1,-8.588406723E0,1.174820230E0,5.675967078E0,1.036134812E1
1.273310029E1,-8.679249650E0,2.298703026E0,6.667958323E0,1.118369699E1
1.274308229E1,-8.699868686E0,4.324128826E0,7.989959988E0,1.257876249E1
1.275306329E1,-8.783078658E0,6.624845633E0,9.143879930E0,1.430529939E1
1.276304529E1,-9.821717820E0,8.109923218E0,1.006679334E1,1.623506463E1
1.277302629E1,-1.113184496E1,8.437089552E0,1.051556012E1,1.748369117E1
1.278300729E1,-1.113039485E1,8.487386132E0,1.028109496E1,1.736727746E1
1.279298929E1,-9.541658410E0,9.263902802E0,9.228181577E0,1.618710831E1
1.280297029E1,-7.757952411E0,1.037799736E1,6.762638193E0,1.461581096E1
1.281295229E1,-6.920180894E0,1.083515022E1,4.004711223E0,1.346577498E1
1.282293329E1,-7.252936581E0,1.044423696E1,2.633621013E0,1.298549708E1
1.283291529E1,-8.281860010E0,9.273386402E0,3.126700337E0,1.282034148E1
1.284289629E1,-8.821575556E0,7.237146760E0,4.424206553E0,1.223805917E1
1.285287829E1,-7.843843916E0,4.711916753E0,5.373019327E0,1.061119143E1
1.286285929E1,-5.256973146E0,2.555985192E0,5.680467680E0,8.150861306E0
1.287284029E1,-1.583625973E0,5.359405839E-1,5.440055315E0,5.691160283E0
1.288282229E1,2.179956601E0,-1.386513410E0,5.008327317E0,5.635421256E0
1.289280329E1,5.351533733E0,-2.998453356E0,4.599140043E0,7.666924087E0
1.290278529E1,7.583240531E0,-4.149184812E0,3.897022760E0,9.481985970E0
1.291276629E1,8.687138128E0,-4.960088958E0,2.699433179E0,1.036126396E1
1.292274829E1,9.071528823E0,-5.807068085E0,1.127319789E0,1.082984417E1
1.293272929E1,9.233488510E0,-6.640120314E0,-6.647556219E-1,1.139255932E1
1.294271129E1,9.494349173E0,-7.205572965E0,-2.598291551E0,1.219893712E1
1.295269229E1,1.000157350E1,-7.556349771E0,-4.499256736E0,1.331815323E1
1.296267329E1,1.055634562E1,-7.808934869E0,-6.240193568E0,1.453808490E1
1.297265529E1,1.093782967E1,-7.989298668E0,-7.595794503E0,1.552936268E1
1.298263629E1,1.096556652E1,-8.181001387E0,-8.626340534E0,1.617362618E1
1.299261829E1,1.095639341E1,-8.013871592E0,-9.242211387E0,1.642203293E1
1.300259929E1,1.074878451E1,-7.589973600E0,-9.615680652E0,1.629740415E1
1.301258129E1,1.020174123E1,-7.199089572E0,-9.713699282E0,1.581955652E1
1.302256229E1,9.484081462E0,-6.758705356E0,-9.431359457E0,1.498594143E1
1.303254429E1,8.988932809E0,-6.117811929E0,-8.897451366E0,1.404966820E1
1.304252529E1,8.483882480E0,-5.507025815E0,-8.112231115E0,1.296579689E1
1.305250629E1,7.698903134E0,-5.058165475E0,-6.993624262E0,1.156585180E1
1.306248829E1,6.711710699E0,-4.431249232E0,-5.644534201E0,9.825670288E0
1.307246929E1,5.638523848E0,-3.499344560E0,-4.200269596E0,7.853701561E0
1.308245104E1,4.038076605E0,-2.419115907E0,-2.680229169E0,5.416808362E0
1.309243204E1,1.557574874E0,-1.274629862E0,-1.063440566E0,2.276318653E0
1.310241404E1,-1.715533896E0,6.573439837E-2,4.812584464E-1,1.782971467E0
1.311239504E1,-5.315244743E0,1.477006089E0,1.842474024E0,5.816191554E0
1.312237604E1,-8.163200709E0,2.796646063E0,2.981522158E0,9.129542672E0
1.313235804E1,-9.991319818E0,3.938635347E0,4.172519295E0,1.152168553E1
1.314233904E1,-1.135008994E1,5.676590976E0,5.724955051E0,1.392204501E1
1.315232104E1,-1.263292579E1,8.182449743E0,7.344583501E0,1.674772237E1
1.316230204E1,-1.432913522E1,1.005043985E1,9.244748493E0,1.979395948E1
1.317228404E1,-1.616970539E1,1.014815851E1,1.155033837E1,2.231266031E1
1.318226504E1,-1.661193031E1,9.240806885E0,1.326038115E1,2.317728303E1
1.319224704E1,-1.513668482E1,8.476453593E0,1.361569656E1,2.205349600E1
1.320222804E1,-1.214025577E1,7.913169674E0,1.264653460E1,1.923379582E1
1.321220904E1,-8.735864146E0,7.303830162E0,1.114391361E1,1.593261021E1
1.322219104E1,-5.874375969E0,6.725821200E0,9.877014939E0,1.331541918E1
1.323217204E1,-3.590949379E0,5.867435324E0,8.699008561E0,1.109028695E1
1.324215404E1,-2.137457283E0,4.666286836E0,6.921604691E0,8.616934953E0
1.325213504E1,-1.058371176E0,3.524687562E0,4.445925744E0,5.771466683E0
1.326211704E1,-2.190174025E-1,2.492615992E0,1.954118421E0,3.174851479E0
1.327209804E1,-5.104677737E-2,1.459984260E0,-4.539076567E-2,1.461581381E0
1.328208004E1,-4.166866207E-1,3.612023914E-1,-1.794706073E0,1.877515591E0
1.329206104E1,-8.451606435E-1,-8.573924339E-1,-3.341212167E0,3.551495044E0
1.330204204E1,-7.135561913E-1,-1.914166735E0,-4.488950141E0,4.931923570E0
1.331202404E1,5.825697899E-2,-2.734086118E0,-5.484656707E0,6.128627903E0
1.332200504E1,1.249110859E0,-3.401997775E0,-6.340692002E0,7.303303490E0
1.333198704E1,2.491046015E0,-3.948812426E0,-7.018155670E0,8.429290530E0
1.334196804E1,3.774853667E0,-4.440756220E0,-7.467193766E0,9.472529691E0
1.335195004E1,5.194153585E0,-4.828980349E0,-7.853435104E0,1.058181107E1
1.336193104E1,6.516647000E0,-5.161694521E0,-8.074879686E0,1.158936842E1
1.337191304E1,7.546077967E0,-5.426673378E0,-8.038853821E0,1.228882612E1
1.338189404E1,8.282013207E0,-5.657668802E0,-7.782213094E0,1.269503051E1
1.339187504E1,8.773806728E0,-5.966384831E0,-7.329854364E0,1.289589847E1
1.340185704E1,9.146741558E0,-6.184463171E0,-6.866204077E0,1.300212384E1
1.341183804E1,9.431001023E0,-6.369085497E0,-6.343399848E0,1.302872795E1
1.342182004E1,9.539925295E0,-6.529310315E0,-5.785582491E0,1.292729796E1
1.343180104E1,9.406870149E0,-6.590225438E0,-5.223670329E0,1.261772599E1
1.344178304E1,9.153638933E0,-6.498538758E0,-4.770828913E0,1.219757846E1
1.345176404E1,8.990340818E0,-6.252054060E0,-4.533912306E0,1.185203648E1
1.346174504E1,8.620368773E0,-6.109165651E0,-4.093119077E0,1.133076725E1
1.347172704E1,8.038065031E0,-5.850404724E0,-3.449160247E0,1.052304287E1
1.348170804E1,7.083816978E0,-5.389692662E0,-2.688422872E0,9.298218513E0
1.349169004E1,5.742109028E0,-4.710702871E0,-1.878991055E0,7.661145150E0
1.350167104E1,3.956043677E0,-3.740247506E0,-1.084171430E0,5.551140484E0
1.351165304E1,1.206440218E0,-2.689098811E0,-5.125961602E-3,2.947333827E0
1.352163404E1,-1.894511320E0,-1.388944682E0,1.127301078E0,2.605599392E0
1.353161604E1,-4.819940554E0,1.567164892E-1,1.921390239E0,5.191158585E0
1.354159704E1,-7.350950534E0,1.461899807E0,2.188339169E0,7.807845613E0
1.355157804E1,-9.850757432E0,2.447650319E0,1.966943119E0,1.033911405E1
1.356156004E1,-1.286524268E1,4.056156195E0,2.406642042E0,1.370251066E1
1.357154104E1,-1.565705661E1,7.015396369E0,3.557008047E0,1.752174404E1
1.358152304E1,-1.769824826E1,9.861663659E0,4.857198427E0,2.083441331E1
1.359150404E1,-1.927476635E1,1.072467878E1,5.952519329E0,2.284661549E1
1.360148604E1,-1.996419986E1,9.498017716E0,6.921236317E0,2.316646561E1
1.361146704E1,-1.857407930E1,8.411891561E0,7.196941305E0,2.162295784E1
1.362144904E1,-1.551771512E1,8.271608087E0,6.482211578E0,1.874134600E1
1.363143004E1,-1.213340050E1,8.019259216E0,5.677099099E0,1.561273135E1
1.364141104E1,-8.651667164E0,7.286479134E0,5.743806474E0,1.268603310E1
1.365139304E1,-4.863304675E0,6.812990322E0,6.288726043E0,1.046979678E1
1.366137404E1,-1.519921728E0,6.717709942E0,6.794750517E0,9.675041267E0
1.367135604E1,8.770344007E-1,6.448683059E0,6.640286375E0,9.297747344E0
1.368133704E1,2.401825690E0,5.548224712E0,5.542633020E0,8.201972012E0
1.369131904E1,3.125302852E0,3.863883957E0,3.565068726E0,6.116112505E0
1.370130004E1,3.030380323E0,2.103188506E0,1.300055602E0,3.911106156E0
1.371128204E1,2.813442775E0,9.985980141E-1,-6.661876050E-1,3.058833792E0
1.372126304E1,2.984765609E0,5.929310560E-2,-2.352193354E0,3.800678227E0
1.373124404E1,3.721887833E0,-9.248178470E-1,-4.091984425E0,5.608214834E0
1.374122604E1,4.901094645E0,-1.736058792E0,-6.233817764E0,8.117580475E0
1.375120704E1,6.669599052E0,-2.142501091E0,-8.139058725E0,1.073862837E1
1.376118904E1,8.558415184E0,-2.405108902E0,-9.298330624E0,1.286429056E1
1.377117004E1,1.001458706E1,-2.861262474E0,-9.569694639E0,1.414418016E1
1.378115204E1,1.081452007E1,-3.597509955E0,-8.941294373E0,1.448594724E1
1.379113304E1,1.114779616E1,-4.414902756E0,-7.630919897E0,1.421251787E1
1.380111504E1,1.105295550E1,-5.242522337E0,-6.093484004E0,1.366683624E1
1.381109604E1,1.078692239E1,-5.877327644E0,-4.586028247E0,1.311229690E1
1.382107704E1,1.053198612E1,-6.206549858E0,-3.350866213E0,1.267565766E1
1.383105904E1,1.024412653E1,-6.389913864E0,-2.452620160E0,1.232024647E1
1.384104004E1,9.932627807E0,-6.435857776E0,-1.872318505E0,1.198260978E1
1.385102204E1,9.577031141E0,-6.284460499E0,-1.451863354E0,1.154650927E1
1.386100304E1,9.004311571E0,-5.993186129E0,-1.048312211E0,1.086714614E1
1.387098504E1,8.236379782E0,-5.618139870E0,-7.661825940E-1,9.999424147E0
1.388096604E1,7.621259712E0,-5.146259041E0,-9.580686235E-1,9.245835668E0
1.389094704E1,7.199633948E0,-4.712421952E0,-1.447400467E0,8.725629935E0
1.390092904E1,6.863996753E0,-4.245023015E0,-1.850458690E0,8.280028333E0
1.391091004E1,6.583219305E0,-3.626346084E0,-2.086442958E0,7.800154264E0
1.392089204E1,6.114207121E0,-2.959368228E0,-2.217740431E0,7.145611355E0
1.393087304E1,5.306139459E0,-2.276004134E0,-2.241114676E0,6.193375959E0
1.394085504E1,4.209977728E0,-1.618857787E0,-2.190119061E0,5.014103560E0
1.395083604E1,2.873192548E0,-9.412479383E-1,-2.061788465E0,3.659529311E0
1.396081804E1,1.167828130E0,-2.446100807E-1,-1.603804130E0,1.998960810E0
1.397079904E1,-1.154332171E0,4.600495720E-1,-8.477889669E-1,1.504285379E0
1.398078004E1,-3.715766383E0,1.107822833E0,-2.332392928E-1,3.884403662E0
1.399076204E1,-5.639334857E0,1.607151076E0,2.580899593E-1,5.869552167E0
1.400074304E1,-6.924168695E0,2.280490118E0,8.485999757E-1,7.339268984E0
1.401072504E1,-8.323622578E0,3.268480114E0,1.590322497E0,9.082663746E0
1.402070604E1,-9.740323409E0,4.364052445E0,2.703200541E0,1.101027461E1
1.403068804E1,-1.046131667E1,5.750348924E0,3.877853833E0,1.255162976E1
1.404066904E1,-1.080042244E1,7.025020301E0,4.798244168E0,1.374857019E1
1.405065104E1,-1.131491777E1,7.418048503E0,5.590580188E0,1.463930991E1
1.406063204E1,-1.229214772E1,7.015984599E0,6.637567420E0,1.563260173E1
1.407061304E1,-1.277669479E1,7.048676382E0,7.423719717E0,1.637190835E1
1.408059504E1,-1.265154332E1,6.994484972E0,7.457833543E0,1.626664224E1
1.409057621E1,-1.263010743E1,6.233567503E0,7.702350068E0,1.605313596E1
1.410055821E1,-1.235724244E1,5.440105017E0,8.438882309E0,1.592202618E1
1.411053921E1,-1.200258893E1,4.831542599E0,9.255713777E0,1.590830545E1
1.412052121E1,-1.164698583E1,4.103441459E0,9.784480997E0,1.575520800E1
1.413050221E1,-1.105866822E1,3.284641233E0,9.405763271E0,1.488460257E1
1.414048321E1,-1.001414735E1,2.523817320E0,8.014013679E0,1.307200123E1
1.415046521E1,-8.276837837E0,1.742966693E0,5.771697108E0,1.023994458E1
1.416044621E1,-6.047145404E0,9.920122951E-1,3.117854084E0,6.875541435E0
1.417042821E1,-3.687763483E0,3.137651002E-1,4.189038849E-1,3.724718581E0
1.418040921E1,-1.656482865E0,-3.860513037E-1,-2.253547903E0,2.823375505E0
1.419039121E1,7.376379490E-2,-1.177329855E0,-4.771385275E0,4.915044672E0
1.420037221E1,1.902416171E0,-1.712257701E0,-6.467391225E0,6.955441250E0
1.421035421E1,3.821883407E0,-2.014849357E0,-7.335471200E0,8.513257216E0
1.422033521E1,5.667249464E0,-2.345036362E0,-7.669103969E0,9.819983082E0
1.423031621E1,7.154824980E0,-2.862475187E0,-7.565539255E0,1.079919761E1
1.424029821E1,8.256781302E0,-3.412877689E0,-7.087192576E0,1.140396730E1
1.425027921E1,9.040570155E0,-3.911341129E0,-6.415396614E0,1.175533121E1
1.426026121E1,9.498783116E0,-4.355156491E0,-5.515084448E0,1.181568556E1
1.427024221E1,9.796028078E0,-4.689415498E0,-4.555368079E0,1.177727312E1
1.428022421E1,9.968016325E0,-4.885221208E0,-3.911047599E0,1.176958067E1
1.429020521E1,1.017507208E1,-4.945079740E0,-3.744582632E0,1.191670275E1
1.430018721E1,1.021750181E1,-5.106237189E0,-3.975070517E0,1.209430391E1
1.431016821E1,1.004716891E1,-5.249646000E0,-4.560257228E0,1.221885151E1
1.432014921E1,9.742755266E0,-5.157924821E0,-5.359478345E0,1.225762933E1
1.433013121E1,9.356719750E0,-4.889445237E0,-6.039567413E0,1.216269928E1
1.434011221E1,8.942187243E0,-4.628807353E0,-6.553467502E0,1.201401292E1
1.435009421E1,8.451875991E0,-4.481307245E0,-6.943212492E0,1.182051277E1
1.436007521E1,7.905841359E0,-4.300181555E0,-6.960895641E0,1.137751981E1
1.437005721E1,7.235467440E0,-3.887156460E0,-6.548391534E0,1.050444697E1
1.438003821E1,6.138852550E0,-3.268556128E0,-5.756653392E0,9.028179665E0
1.439001921E1,4.469704031E0,-2.566724188E0,-4.691797361E0,6.969884480E0
1.440000121E1,2.257559677E0,-2.186045891E0,-3.102750434E0,4.416155861E0
1.440998221E1,-1.339094245E-1,-1.831536223E0,-1.372697609E0,2.292761522E0
1.441996421E1,-2.173152196E0,-1.002805086E0,1.925166517E-2,2.393445034E0
1.442994521E1,-4.237211720E0,-1.354583520E-1,1.386496746E0,4.460345878E0
1.443992721E1,-6.311631340E0,6.703329885E-1,2.792772283E0,6.934379101E0
1.444990821E1,-7.988556656E0,1.526823197E0,4.367118140E0,9.231465072E0
1.445989021E1,-9.871276481E0,2.615363667E0,6.268808672E0,1.198249509E1
1.446987121E1,-1.190234192E1,3.944877250E0,8.101882128E0,1.492877402E1
1.447985221E1,-1.285789741E1,5.252804081E0,8.976416844E0,1.653763997E1
1.448983421E1,-1.257291582E1,5.886546364E0,8.733267982E0,1.640120757E1
1.449981521E1,-1.138701979E1,5.796546605E0,7.853159115E0,1.499787586E1
1.450979721E1,-1.007107935E1,5.897180110E0,7.053034312E0,1.363629955E1
1.451977821E1,-9.279241803E0,6.258819873E0,6.618638229E0,1.300321217E1
1.452976021E1,-8.924225181E0,6.116579921E0,6.854800837E0,1.280791316E1
1.453974121E1,-8.515511824E0,5.437457982E0,7.908846828E0,1.283081249E1
1.454972321E1,-8.216762958E0,4.370084433E0,9.256953387E0,1.312646249E1
1.455970421E1,-8.087808464E0,3.113220751E0,1.032496194E1,1.347997138E1
1.456968521E1,-7.501590012E0,2.002784212E0,1.065294513E1,1.318219395E1
1.457966721E1,-6.145941129E0,1.188713799E0,1.009796368E1,1.188084607E1
1.458964821E1,-4.307209908E0,3.667432129E-1,8.600855445E0,9.626072520E0
1.459963021E1,-2.433086075E0,-4.770977139E-1,6.265720757E0,6.738455808E0
1.460961121E1,-7.456544816E-1,-1.196849615E0,3.655669870E0,3.918210281E0
1.461959321E1,9.864638722E-1,-1.902910845E0,1.103164941E0,2.410633432E0
1.462957421E1,3.140433108E0,-2.594907768E0,-1.296701932E0,4.275196174E0
1.463955621E1,5.247982467E0,-3.055489436E0,-3.633383208E0,7.076638270E0
1.464953721E1,7.127765821E0,-3.383228797E0,-5.747600732E0,9.761464894E0
1.465951821E1,8.687435752E0,-3.630705183E0,-7.242219220E0,1.187869098E1
1.466950021E1,9.590090312E0,-3.836979164E0,-8.117869585E0,1.313742927E1
1.467948121E1,9.842926841E0,-3.978932018E0,-8.524725282E0,1.361565459E1
1.468946321E1,9.740461988E0,-4.112870679E0,-8.874382346E0,1.380387507E1
1.469944421E1,9.409407256E0,-4.161281531E0,-9.083176476E0,1.372433254E1
1.470942621E1,9.154405503E0,-4.143860922E0,-9.173327093E0,1.360605209E1
1.471940721E1,8.853513048E0,-4.207710763E0,-9.032056609E0,1.332919989E1
1.472938821E1,8.571684271E0,-4.304547670E0,-8.575100799E0,1.286605050E1
1.473937021E1,8.366863908E0,-4.367753148E0,-8.040797435E0,1.239903636E1
1.474935121E1,8.166161739E0,-4.321080673E0,-7.411709536E0,1.184446596E1
1.475933321E1,7.904752607E0,-4.194012491E0,-6.684310647E0,1.116937166E1
1.476931421E1,7.490218347E0,-4.089125136E0,-5.931109164E0,1.039241893E1
1.477929621E1,7.029838992E0,-3.870132877E0,-5.212503902E0,9.569052286E0
1.478927721E1,6.491007544E0,-3.545769698E0,-4.523857434E0,8.670118095E0
1.479925821E1,5.885845867E0,-3.218670022E0,-3.919226099E0,7.769385529E0
1.480924021E1,5.094344537E0,-2.859532283E0,-3.330730449E0,6.724807541E0
1.481922121E1,3.881785208E0,-2.435368828E0,-2.678710355E0,5.307990853E0
1.482920321E1,2.433655593E0,-1.814455921E0,-1.950116879E0,3.608030720E0
1.483918421E1,1.051044615E0,-1.109441927E0,-1.184478953E0,1.933532147E0
1.484916621E1,-3.166086012E-1,-6.337130463E-1,-2.510078117E-1,7.515571522E-1
1.485914721E1,-2.070738798E0,-3.000498712E-1,9.257095474E-1,2.287996342E0
1.486912921E1,-3.706842363E0,9.239594758E-2,2.099391909E0,4.261063682E0
1.487911021E1,-4.822299905E0,4.990937698E-1,2.887311527E0,5.642715554E0
1.488909121E1,-6.021531676E0,1.000538120E0,3.473351347E0,7.023111122E0
1.489907321E1,-8.447177753E0,1.700671443E0,4.130223461E0,9.555409002E0
1.490905421E1,-1.130827417E1,2.994155068E0,5.276917999E0,1.283307807E1
1.491903621E1,-1.242133377E1,5.232614815E0,5.691661005E0,1.463095333E1
1.492901721E1,-1.064399772E1,6.595893729E0,4.469595273E0,1.329578067E1
1.493899921E1,-5.591576554E0,6.850901329E0,3.402988001E0,9.475278608E0
1.494898021E1,-1.723360979E0,6.776359854E0,4.035403258E0,8.073010925E0
1.495896221E1,-2.326721129E0,7.369600228E0,6.529073503E0,1.011698767E1
1.496894321E1,-6.086664396E0,7.545786191E0,9.800633930E0,1.378545604E1
1.497892421E1,-8.484207001E0,6.459273536E0,1.258047860E1,1.649158649E1
1.498890621E1,-7.029541368E0,5.035501083E0,1.374698526E1,1.624039183E1
1.499888721E1,-5.310680407E0,3.882757600E0,1.377648447E1,1.526665180E1
1.500886921E1,-5.210379024E0,3.148419235E0,1.325909710E1,1.458986803E1
1.501885021E1,-5.662341312E0,2.652008168E0,1.162092245E1,1.319625307E1
1.502883221E1,-5.687042289E0,2.119833190E0,8.909566212E0,1.078037628E1
1.503881321E1,-5.306047658E0,1.422755038E0,5.754578800E0,7.955724405E0
1.504879421E1,-4.704884892E0,1.023389039E0,2.757423525E0,5.548572020E0
1.505877621E1,-3.881091143E0,6.581123078E-1,1.640646851E-1,3.939910849E0
1.506875721E1,-2.987156535E0,3.445588768E-2,-1.947752557E0,3.566234905E0
1.507873921E1,-2.200991374E0,-6.838441497E-1,-3.727916020E0,4.382848812E0
1.508872058E1,-9.802324945E-1,-1.072420281E0,-4.931275048E0,5.140857380E0
1.509870258E1,6.987475330E-1,-1.420807330E0,-5.682820015E0,5.899269862E0
1.510868358E1,2.428632835E0,-1.721822577E0,-6.008603482E0,6.705687604E0
1.511866558E1,4.290745903E0,-1.889169304E0,-5.948125731E0,7.573616096E0
1.512864658E1,5.922910783E0,-2.098149961E0,-5.749056104E0,8.516733616E0
1.513862758E1,6.984058802E0,-2.520465111E0,-5.459794346E0,9.216245224E0
1.514860958E1,7.705283031E0,-2.950219674E0,-5.027947649E0,9.662061907E0
1.515859058E1,8.222562227E0,-3.296662524E0,-4.597970892E0,9.980974386E0
1.516857258E1,8.595698200E0,-3.607435604E0,-4.224646053E0,1.023461057E1
1.517855358E1,8.898099237E0,-3.901803151E0,-4.062438444E0,1.053107991E1
1.518853558E1,9.107834185E0,-4.269878944E0,-4.116281945E0,1.086868376E1
1.519851658E1,9.189678832E0,-4.666965113E0,-4.356746642E0,1.118981688E1
1.520849758E1,9.271491904E0,-4.948048956E0,-4.780159022E0,1.154528782E1
1.521847958E1,9.312600753E0,-5.051009068E0,-5.192098873E0,1.179809799E1
1.522846058E1,9.295421634E0,-4.963569805E0,-5.453420881E0,1.186514593E1
1.523844258E1,8.999301091E0,-4.882696381E0,-5.627104236E0,1.168299817E1
1.524842358E1,8.437893544E0,-4.861492622E0,-5.705434706E0,1.128645840E1
1.525840558E1,7.717099085E0,-4.806101364E0,-5.586204132E0,1.067042198E1
1.526838658E1,6.741444960E0,-4.596379865E0,-5.158489078E0,9.653175518E0
1.527836858E1,5.666630244E0,-4.103914499E0,-4.464606428E0,8.299730303E0
1.528834958E1,4.374380382E0,-3.550093714E0,-3.466979929E0,6.615007100E0
1.529833058E1,2.925228674E0,-2.874055597E0,-2.493806486E0,4.799607188E0
1.530831258E1,1.515065616E0,-2.075883179E0,-1.633034069E0,3.044916265E0
1.531829358E1,3.370376033E-1,-1.297073230E0,-8.171054104E-1,1.569603314E0
1.532827558E1,-8.697709894E-1,-4.627106398E-1,-1.304879263E-1,9.937956576E-1
1.533825658E1,-2.282103365E0,5.198835450E-1,6.312288567E-1,2.424195648E0
1.534823858E1,-4.055744551E0,1.398115456E0,1.594923086E0,4.576851576E0
1.535821958E1,-6.099787887E0,2.052180321E0,2.323927329E0,6.842477224E0
1.536820058E1,-7.859817924E0,2.583958272E0,2.678344027E0,8.696384587E0
1.537818258E1,-9.089044157E0,3.330830728E0,2.722630253E0,1.005573829E1
1.538816358E1,-9.923181045E0,4.088318805E0,2.907942551E0,1.111935262E1
1.539814558E1,-1.053197677E1,4.167349772E0,3.432361196E0,1.183513591E1
1.540812658E1,-1.094712908E1,3.925858596E0,4.344804581E0,1.241488331E1
1.541810858E1,-1.067954178E1,3.836552902E0,5.818093010E0,1.275233144E1
1.542808958E1,-9.732941884E0,3.892970932E0,7.643227701E0,1.297321510E1
1.543807158E1,-8.304075336E0,4.101611865E0,9.676696347E0,1.339475044E1
1.544805258E1,-6.902863780E0,4.424784258E0,1.152499888E1,1.414403914E1
1.545803358E1,-6.396099048E0,4.754528045E0,1.281955020E1,1.509491594E1
1.546801558E1,-7.544188147E0,4.768539143E0,1.318789087E1,1.592401350E1
1.547799658E1,-9.421854224E0,4.322172640E0,1.236647285E1,1.613636155E1
1.548797858E1,-9.791222252E0,3.964024834E0,1.048419800E1,1.488287384E1
1.549795958E1,-8.223980761E0,3.699154444E0,7.725569946E0,1.187442774E1
1.550794158E1,-5.947737476E0,3.366648433E0,4.729999852E0,8.311606424E0
1.551792258E1,-4.088433995E0,2.783736873E0,1.826438035E0,5.272604613E0
1.552790358E1,-2.458113327E0,1.851367639E0,-8.239486992E-1,3.185714162E0
1.553788558E1,-7.853944981E-1,8.671233702E-1,-3.001158863E0,3.221133648E0
1.554786658E1,9.678171015E-1,5.021939635E-2,-4.623155435E0,4.723638227E0
1.555784858E1,2.867286276E0,-5.236090985E-1,-5.709861048E0,6.410772985E0
1.556782958E1,4.760670252E0,-9.430477113E-1,-6.457065042E0,8.077562083E0
1.557781158E1,6.319344403E0,-1.337013806E0,-6.789593858E0,9.371248815E0
1.558779258E1,7.442837189E0,-1.791157398E0,-6.795921130E0,1.023663100E1
1.559777458E1,8.283090264E0,-2.193822103E0,-6.539737070E0,1.077917440E1
1.560775558E1,8.819909685E0,-2.635553810E0,-6.086873142E0,1.103571363E1
1.561773658E1,9.127651568E0,-3.003276139E0,-5.510414277E0,1.107692901E1
1.562771858E1,9.207726848E0,-3.408130919E0,-4.903254021E0,1.097449270E1
1.563769958E1,9.187379707E0,-3.849329653E0,-4.309832384E0,1.085356807E1
1.564768158E1,9.078692831E0,-4.358010517E0,-3.928005109E0,1.080944695E1
1.565766258E1,8.939436713E0,-4.847093269E0,-3.585918435E0,1.078270156E1
1.566764458E1,8.778658163E0,-5.215819273E0,-3.380808050E0,1.075636895E1
1.567762558E1,8.535069006E0,-5.448618563E0,-3.356050354E0,1.066761085E1
1.568760658E1,8.331989359E0,-5.468338882E0,-3.500627439E0,1.056310415E1
1.569758858E1,8.293517019E0,-5.300156588E0,-3.822986192E0,1.055884974E1
1.570756958E1,8.104102900E0,-5.050016211E0,-4.145568309E0,1.040984554E1
1.571755158E1,7.501538556E0,-4.716714393E0,-4.351626527E0,9.872037723E0
1.572753258E1,6.565865938E0,-4.205933794E0,-4.460193534E0,8.982972835E0
1.573751458E1,5.513320928E0,-3.618817209E0,-4.598760266E0,8.039971494E0
1.574749558E1,4.203845168E0,-2.950670494E0,-4.642044865E0,6.922958262E0
1.575747758E1,2.547747050E0,-2.059948347E0,-4.320802930E0,5.422521570E0
1.576745858E1,6.452741611E-1,-1.090423858E0,-3.643783066E0,3.857791851E0
1.577743958E1,-8.267805058E-1,-9.767539859E-2,-2.777725643E0,2.899804517E0
1.578742158E1,-1.735456529E0,8.428463155E-1,-2.005466330E0,2.782821316E0
1.579740258E1,-3.238112015E0,1.667268054E0,-1.416395606E0,3.907854744E0
1.580738458E1,-5.927475704E0,2.521550354E0,-6.038387445E-1,6.469760864E0
1.581736558E1,-8.821525855E0,3.293056546E0,3.044475621E-1,9.421052390E0
1.582734758E1,-1.088738925E1,3.914622002E0,7.876164401E-1,1.159654473E1
1.583732858E1,-1.145704604E1,4.500825251E0,7.599363059E-1,1.233283565E1
1.584730958E1,-1.114888141E1,4.694517778E0,5.520005465E-1,1.210953172E1
1.585729158E1,-1.014508288E1,4.497122794E0,5.622752738E-1,1.111138936E1
1.586727258E1,-8.863784852E0,4.167701190E0,1.106635848E0,9.857030892E0
1.587725458E1,-7.762930731E0,4.170701396E0,2.296528738E0,9.106694675E0
1.588723558E1,-7.141448890E0,4.191657817E0,3.768919328E0,9.098078940E0
1.589721758E1,-6.910097955E0,3.903395055E0,4.897390434E0,9.325791107E0
1.590719858E1,-6.772017712E0,3.516958128E0,5.554603440E0,9.438370502E0
1.591717958E1,-6.428662777E0,3.144066860E0,5.783631275E0,9.201263622E0
1.592716158E1,-5.655348626E0,2.870442895E0,5.735940215E0,8.551223342E0
1.593714258E1,-4.490677993E0,2.672290404E0,5.573182967E0,7.639875211E0
1.594712458E1,-3.163117381E0,2.518099035E0,5.332931986E0,6.692256561E0
1.595710558E1,-1.966516272E0,2.401318737E0,4.983842686E0,5.871303590E0
1.596708858E1,-1.135541559E0,2.284377932E0,4.515685365E0,5.186448832E0
1.597706958E1,-7.745888436E-1,2.129500100E0,3.962925265E0,4.565033977E0
1.598705158E1,-6.523095310E-1,1.833894697E0,3.199183592E0,3.744790133E0
1.599703258E1,-4.575036943E-1,1.415827256E0,2.264041901E0,2.709199546E0
1.600701358E1,-6.426090002E-3,1.064018125E0,1.349122220E0,1.718227758E0
1.601699558E1,6.519054884E-1,6.892940471E-1,5.470421076E-1,1.095153924E0
1.602697658E1,1.402752298E0,1.645257381E-1,-4.541415453E-2,1.413097722E0
1.603695858E1,2.052174473E0,-4.112884712E-1,-4.918011224E-1,2.149987586E0
1.604693958E1,2.648757700E0,-8.962740791E-1,-8.250450522E-1,2.915462899E0
1.605692158E1,3.470090355E0,-1.269586931E0,-1.119956975E0,3.861046707E0
1.606690258E1,4.417035820E0,-1.592847033E0,-1.505599266E0,4.930942735E0
1.607688358E1,5.429319243E0,-1.828969587E0,-2.049386521E0,6.084621788E0
1.608686558E1,6.368175085E0,-2.090327263E0,-2.767141598E0,7.251220215E0
1.609684596E1,6.997337828E0,-2.368703552E0,-3.605246699E0,8.220176212E0
1.610682796E1,7.323470374E0,-2.565289282E0,-4.449898342E0,8.945139612E0
1.611680896E1,7.591717240E0,-2.664158974E0,-5.229577771E0,9.595853133E0
1.612679096E1,7.794857113E0,-2.643205769E0,-5.877869096E0,1.011413265E1
1.613677196E1,7.842873863E0,-2.585955681E0,-6.241226771E0,1.035136459E1
1.614675396E1,7.754257556E0,-2.498856141E0,-6.302560555E0,1.030024572E1
1.615673496E1,7.525850694E0,-2.288334743E0,-6.099644045E0,9.953921943E0
1.616671596E1,7.310424652E0,-2.063498776E0,-5.739684187E0,9.520730558E0
1.617669796E1,7.026399075E0,-1.946498914E0,-5.252509382E0,8.985988915E0
1.618667896E1,6.524202188E0,-1.859401129E0,-4.635226719E0,8.216319948E0
1.619666096E1,5.953380039E0,-1.675850013E0,-3.889198600E0,7.305961463E0
1.620664196E1,5.559782903E0,-1.371749191E0,-3.042475581E0,6.484561622E0
1.621662396E1,5.151396405E0,-1.038298854E0,-2.342503933E0,5.753457579E0
1.622660496E1,4.463137608E0,-6.105300057E-1,-1.718370088E0,4.821321391E0
1.623658596E1,3.427885737E0,-1.006563091E-1,-8.733453923E-1,3.538822473E0
1.624656796E1,1.846493400E0,5.203788042E-1,2.076451528E-1,1.929623924E0
1.625654896E1,-7.232970679E-1,1.150859510E0,1.527182801E0,2.044486138E0
1.626653096E1,-3.925489052E0,1.629773369E0,3.226745027E0,5.336432235E0
1.627651196E1,-6.944156232E0,1.926224279E0,4.964786026E0,8.751042569E0
1.628649396E1,-9.115251963E0,1.815861007E0,6.071693770E0,1.110183024E1
1.629647496E1,-9.559940314E0,1.453728324E0,6.477745475E0,1.163902794E1
1.630645696E1,-8.045582796E0,1.522306223E0,6.245054358E0,1.029803490E1
1.631643796E1,-5.965353382E0,2.129990389E0,5.471983452E0,8.370478059E0
1.632641896E1,-4.503611450E0,2.428838657E0,4.925192190E0,7.102062476E0
1.633640096E1,-3.662281902E0,2.693432767E0,5.217859951E0,6.920473341E0
1.634638196E1,-4.234688646E0,3.087660817E0,6.050442064E0,8.004629062E0
1.635636396E1,-6.702130036E0,3.202102522E0,6.386103818E0,9.795628084E0
1.636634496E1,-9.653890452E0,2.988466312E0,6.142021741E0,1.182594448E1
1.637632696E1,-1.135104772E1,2.415098285E0,5.395653899E0,1.279812740E1
1.638630796E1,-1.099325075E1,1.957297552E0,4.219998686E0,1.193695793E1
1.639628996E1,-9.452313539E0,1.512993947E0,3.167631431E0,1.008311811E1
1.640627096E1,-7.652351112E0,9.156611073E-1,2.441249372E0,8.084343591E0
1.641625196E1,-5.830381519E0,3.956635416E-1,2.015607741E0,6.181631893E0
1.642623396E1,-4.032499530E0,-3.549727678E-2,1.760675570E0,4.400260331E0
1.643621496E1,-2.269666337E0,-4.291277415E-1,1.422189027E0,2.712592400E0
1.644619696E1,-7.271977454E-1,-9.632919413E-1,8.502693558E-1,1.476382709E0
1.645617796E1,5.668542284E-1,-1.597032470E0,9.959913254E-2,1.697573684E0
1.646615996E1,1.779387245E0,-2.235721496E0,-6.993784475E-1,2.941734147E0
1.647614096E1,2.886790248E0,-2.843244864E0,-1.390360293E0,4.283771824E0
1.648612296E1,3.676242714E0,-3.342264374E0,-1.889199709E0,5.315502533E0
1.649610396E1,4.099536688E0,-3.605714183E0,-2.250537171E0,5.905276741E0
1.650608596E1,4.345737796E0,-3.736524584E0,-2.542548290E0,6.269896711E0
1.651606696E1,4.514481423E0,-3.970671072E0,-2.839317289E0,6.648946830E0
1.652604796E1,4.599706346E0,-4.211755282E0,-3.224578049E0,7.020974620E0
1.653602996E1,4.751179637E0,-4.288941452E0,-3.614330056E0,7.350653608E0
1.654601096E1,4.914280116E0,-4.256695812E0,-4.039461810E0,7.654205380E0
1.655599296E1,5.083899071E0,-4.131614513E0,-4.538916938E0,7.969820275E0
1.656597396E1,5.275950285E0,-3.999804824E0,-5.169368992E0,8.399789629E0
1.657595596E1,5.309799816E0,-3.883372142E0,-5.792250656E0,8.764971246E0
