"Time (s)","Linear Acceleration x (m/s^2)","Linear Acceleration y (m/s^2)","Linear Acceleration z (m/s^2)","Absolute acceleration (m/s^2)"
6.067249982E-3,1.644374451E-1,-6.609254032E-2,1.361301970E-1,2.234710894E-1
1.604925000E-2,1.757006443E-1,6.210590869E-2,4.928618073E-3,1.864192897E-1
2.603124999E-2,2.363643372E-1,5.871160001E-2,-1.821770203E-1,3.041440754E-1
3.601225000E-2,1.846913230E-1,3.733447194E-3,-2.465922868E-1,3.081113100E-1
4.599424999E-2,9.389955908E-2,1.713526547E-3,-2.329261744E-1,2.511467023E-1
5.597624998E-2,8.096317917E-2,5.923784941E-2,-2.300709790E-1,2.509916623E-1
6.595824999E-2,1.362635136E-1,1.514215431E-1,-1.493595225E-1,2.525955181E-1
7.594024998E-2,1.582282868E-1,2.539472070E-1,-4.465869427E-2,3.025223524E-1
8.592124999E-2,2.495264196E-1,3.507969788E-1,7.826498151E-2,4.375469823E-1
9.590324998E-2,4.176943883E-1,4.733388314E-1,1.780009389E-1,6.558983043E-1
1.058852500E-1,5.710914132E-1,5.873221144E-1,2.076083153E-1,8.450999236E-1
1.158672500E-1,6.584777588E-1,6.128121740E-1,3.054088444E-1,9.499506732E-1
1.258492500E-1,7.206696215E-1,6.080484474E-1,3.795152861E-1,1.016424847E0
1.358302500E-1,8.053106993E-1,5.558024061E-1,3.182581007E-1,1.028945993E0
1.458122500E-1,6.794429505E-1,4.296507749E-1,1.488660175E-1,8.175595406E-1
1.557942500E-1,2.811873382E-1,3.989955774E-1,-1.270483017E-2,4.882880325E-1
1.657762500E-1,2.467525005E-2,4.711171818E-1,-1.623286468E-1,4.989096677E-1
1.757582500E-1,1.065242824E-1,5.865710396E-1,-4.056464928E-1,7.210839648E-1
1.857402500E-1,9.319847792E-2,7.707904923E-1,-9.033515489E-1,1.191154046E0
1.957212500E-1,-6.531339884E-4,7.407764420E-1,-1.007237275E0,1.250310798E0
2.057032500E-1,2.900894317E-1,3.834566018E-1,-5.159086078E-1,7.052322564E-1
2.156852500E-1,4.938511562E-1,1.560040060E-1,-3.950256103E-1,6.513612264E-1
2.256672500E-1,5.241400257E-1,1.598155135E-1,-4.964040506E-1,7.393786218E-1
2.356492500E-1,5.877697188E-1,2.730249175E-1,-5.894081086E-1,8.760238389E-1
2.456302500E-1,1.781997442E-1,4.411996105E-1,-9.797845978E-1,1.089215361E0
2.556122500E-1,-8.743417579E-1,9.109280786E-1,-1.591878734E0,2.031832025E0
2.655942500E-1,-4.762513295E-1,8.107632279E-1,-1.930160624E0,2.147014759E0
2.755762500E-1,5.924281955E-2,5.203428438E-1,-1.999967024E0,2.067397998E0
2.855582500E-1,1.369122621E-1,2.845705372E-1,-2.232078096E0,2.254306542E0
2.955392500E-1,2.542310894E-1,2.850617033E-1,-2.097195110E0,2.131694385E0
3.055212500E-1,2.102837089E-1,4.050638178E-1,-2.134155945E0,2.182410945E0
3.155032500E-1,1.554912052E-1,4.019431588E-1,-2.027722587E0,2.073015848E0
3.254852500E-1,5.106268179E-1,4.031488547E-1,-1.728601838E0,1.846979443E0
3.354672500E-1,9.481602243E-1,2.080366239E-1,-1.147228974E0,1.502804500E0
3.454492500E-1,9.961284426E-1,-9.413958728E-2,-5.582319242E-1,1.145756090E0
3.554302500E-1,5.892034560E-1,-1.612629917E-1,1.971330285E-2,6.111915243E-1
3.654122500E-1,1.103609329E-1,-2.730950841E-1,1.415534896E-1,3.267994047E-1
3.753942500E-1,9.095753253E-2,-6.773674813E-1,-9.102126718E-2,6.894815795E-1
3.853762500E-1,3.557919627E-1,-1.399126001E0,-2.453304577E-1,1.464352594E0
3.953582500E-1,2.726047951E-1,-2.208850324E0,-1.763689810E-1,2.232585754E0
4.053392500E-1,2.856014013E-2,-2.849346433E0,-9.778064847E-2,2.851166750E0
4.153212500E-1,-4.676594308E-1,-2.979991942E0,7.680376232E-2,3.017441985E0
4.253032500E-1,-7.753814337E-1,-2.309975434E0,1.484859484E-1,2.441157707E0
4.352852500E-1,-9.235297054E-2,-1.467097251E0,3.146415979E-1,1.503297293E0
4.452672500E-1,7.308043081E-1,-8.614578567E-1,9.179561394E-1,1.455619473E0
4.552482500E-1,1.519268887E0,-1.018269509E0,1.700250444E0,2.497178871E0
4.652302500E-1,1.882673047E0,-1.010801007E0,2.104339238E0,2.999069874E0
4.752122500E-1,1.442806602E0,-1.016881088E0,2.221084746E0,2.837068115E0
4.851942500E-1,1.087327465E0,-1.187855428E0,1.873387669E0,2.470397314E0
4.951762500E-1,9.962515265E-1,-1.277128670E0,1.360123172E0,2.115067324E0
5.051582500E-1,1.139467672E0,-1.158168237E0,1.206226210E0,2.023541922E0
5.151392500E-1,1.314145346E0,-9.225681308E-1,1.154608744E0,1.977683316E0
5.251212500E-1,1.445127654E0,-6.208097032E-1,7.682498771E-1,1.750430375E0
5.351032500E-1,1.506078445E0,-3.667180699E-1,-7.149449050E-2,1.551729966E0
5.450852500E-1,1.551122179E0,-3.289355551E-1,-9.554116488E-1,1.851213124E0
5.550672500E-1,1.506503538E0,-1.843672411E-1,-1.621551014E0,2.221029464E0
5.650482500E-1,1.408037011E0,5.106709644E-2,-1.746144655E0,2.243701680E0
5.750302500E-1,1.438332312E0,2.507976043E-1,-1.444665724E0,2.053961619E0
5.850122500E-1,1.620804617E0,5.626069571E-1,-1.007441343E0,1.989590977E0
5.949942500E-1,1.804250191E0,7.316511311E-1,-6.244884789E-1,2.044655959E0
6.049762500E-1,1.832070951E0,5.845204210E-1,-3.236077183E-1,1.950094881E0
6.149572500E-1,1.700229979E0,4.464426626E-1,-1.997636908E-1,1.769180195E0
6.249392500E-1,1.574581793E0,4.518650781E-1,-1.471276402E-1,1.644729891E0
6.349212500E-1,1.382012808E0,3.658661306E-1,-1.288960218E-1,1.435420361E0
6.449032500E-1,1.160529050E0,1.515971057E-1,-1.005072051E-1,1.174696155E0
6.548852500E-1,8.992061654E-1,-7.485313118E-2,-1.166244704E-1,9.098219530E-1
6.648662500E-1,5.353093770E-1,-2.913087223E-1,-1.175249416E-1,6.206681986E-1
6.748482500E-1,2.763692325E-1,-3.261018482E-1,-1.953525513E-1,4.699840289E-1
6.848301667E-1,1.120227116E-1,-2.008169205E-1,-2.341260231E-1,3.281638587E-1
6.948121667E-1,9.356772959E-2,-9.428211316E-2,-2.762575507E-1,3.065326593E-1
7.047941667E-1,1.531841862E-1,1.345341995E-2,-3.676331592E-1,3.984978408E-1
7.147761667E-1,2.359059155E-1,6.382075086E-2,-2.518653059E-1,3.509427610E-1
7.247571667E-1,3.284807879E-1,1.056907618E-1,1.033015895E-1,3.601963125E-1
7.347391667E-1,4.522289211E-1,2.340184343E-1,4.862287259E-1,7.040553945E-1
7.447211666E-1,5.022898579E-1,5.003292865E-1,7.839765483E-1,1.056997504E0
7.547031667E-1,1.544752514E-1,-1.744996262E-1,5.079066932E-1,5.588219143E-1
7.646851667E-1,-5.518134356E-2,-7.565979843E-1,1.821688342E-1,7.801736824E-1
7.746661667E-1,1.184207350E-1,-5.708043149E-1,-6.986019373E-2,5.871298690E-1
7.846481666E-1,3.000978184E-1,-1.612827261E-1,-1.660609245E-1,3.790079801E-1
7.946301667E-1,2.931992733E-1,-1.258313499E-1,-9.770112634E-2,3.336837614E-1
8.046121667E-1,2.687245828E-1,-1.090907715E-1,-1.693821430E-2,2.905178152E-1
8.145941666E-1,3.353758246E-1,-1.159941405E-3,4.028497696E-2,3.377886448E-1
8.245751667E-1,5.310692686E-1,1.369115312E-1,2.075784945E-1,5.864027343E-1
8.345571666E-1,7.976742357E-1,2.337463926E-1,5.424263155E-1,9.925461552E-1
8.445391667E-1,1.322161878E0,4.514110418E-1,4.217006081E-1,1.459354434E0
8.545211666E-1,1.696572253E0,6.459979002E-1,-4.879676878E-2,1.816053915E0
8.645031667E-1,1.553724190E0,6.616858336E-1,-5.675097013E-1,1.781559503E0
8.744851667E-1,1.253886865E0,5.242724651E-1,-7.320673066E-1,1.543702183E0
8.844661667E-1,1.010946164E0,3.224259961E-1,-9.177719522E-1,1.402952610E0
8.944481667E-1,6.409103841E-1,1.296383259E-1,-1.287957421E0,1.444439869E0
9.044301666E-1,4.475026166E-1,-1.657393277E-3,-1.370670964E0,1.441873861E0
9.144121667E-1,4.149429810E-1,-9.011100188E-2,-1.394687233E0,1.457892365E0
9.243941667E-1,4.193240073E-1,-2.363432872E-1,-1.238811573E0,1.329039084E0
9.343751667E-1,3.700223315E-1,-3.727240375E-1,-1.217023678E0,1.325513624E0
9.443571666E-1,3.496889314E-1,-5.485100511E-1,-1.167101321E0,1.336140381E0
9.543391667E-1,4.239979792E-1,-8.285860529E-1,-9.071171558E-1,1.299688681E0
9.643211667E-1,5.134062919E-1,-1.220542971E0,-7.957604420E-1,1.544844926E0
9.743031666E-1,6.135872224E-1,-1.430197958E0,-6.763345706E-1,1.696874754E0
9.842841667E-1,7.761667147E-1,-1.303113696E0,-3.876721519E-1,1.565512623E0
9.942661666E-1,8.247646782E-1,-1.097286297E0,-2.932846427E-1,1.403670144E0
1.004248167E0,7.922445112E-1,-1.124847879E0,-3.425415874E-1,1.417839502E0
1.014230167E0,1.047613761E0,-1.119041886E0,-2.894944775E-1,1.559986021E0
1.024212167E0,1.423792626E0,-7.444608457E-1,1.682945609E-1,1.615466017E0
1.034194167E0,1.595044709E0,-5.044634141E-1,4.865117311E-1,1.742224045E0
1.044175167E0,1.543562898E0,-5.898715370E-1,4.867994142E-1,1.722645791E0
1.054157167E0,1.273223315E0,-6.789009136E-1,2.324426097E-1,1.461517576E0
1.064139167E0,1.031932991E0,-7.947014382E-1,5.031938374E-2,1.303444710E0
1.074121167E0,1.043576259E0,-8.862831610E-1,-7.324690104E-2,1.371099689E0
1.084103167E0,1.204126475E0,-8.543431840E-1,-1.781523818E-1,1.487131842E0
1.094084167E0,1.382754235E0,-7.023673980E-1,-3.819015348E-1,1.597240752E0
1.104066167E0,1.278451602E0,-4.992963027E-1,-6.776197886E-1,1.530654721E0
1.114048167E0,1.497463742E0,4.465657465E-2,-9.015289718E-1,1.748469719E0
1.124030167E0,1.796947311E0,9.396519408E-2,-1.291616024E0,2.214976535E0
1.134012167E0,1.722628615E0,-6.876423548E-1,-1.333076291E0,2.284161499E0
1.143993167E0,2.063136833E0,-1.161721151E0,-1.285922005E0,2.694387691E0
1.153975167E0,2.231999451E0,-1.164169819E0,-1.929002876E0,3.171461022E0
1.163957167E0,1.596764667E0,-8.464813833E-1,-2.431938266E0,3.029935951E0
1.173939167E0,9.319467723E-1,-1.476930660E-1,-2.005058194E0,2.215986550E0
1.183921167E0,3.830777022E-1,-9.963143840E-2,-1.473093132E0,1.525345314E0
1.193902167E0,2.453874680E-1,-3.626368596E-1,-8.637577128E-1,9.683996530E-1
1.203884167E0,5.610304016E-1,-3.786911210E-1,-3.309781337E-1,7.534643997E-1
1.213866167E0,1.016564754E0,-5.534449549E-1,2.746881580E-1,1.189604472E0
1.223848167E0,1.497978297E0,-6.386334783E-1,7.908353323E-1,1.810307218E0
1.233830167E0,1.706085965E0,-7.989468091E-1,1.158845052E0,2.211779189E0
1.243812167E0,1.659863141E0,-1.104524565E0,1.421813636E0,2.448810767E0
1.253793167E0,1.678675972E0,-1.397609087E0,1.193692703E0,2.489210005E0
1.263775167E0,1.614790463E0,-1.526580245E0,8.532210302E-1,2.380332248E0
1.273757167E0,1.299004273E0,-1.520581440E0,4.778636992E-1,2.056193992E0
1.283739167E0,8.364979935E-1,-1.696647536E0,1.537086815E-1,1.897885168E0
1.293721167E0,5.849800122E-1,-1.736648192E0,2.339231247E-1,1.847395081E0
1.303702167E0,3.039827085E-1,-1.377778986E0,6.925793052E-2,1.412613564E0
1.313684167E0,-1.815192086E-1,-8.881632601E-1,1.980586427E-1,9.279064746E-1
1.323666167E0,-5.704014418E-1,-5.424460499E-1,-3.488098025E-2,7.879227149E-1
1.333648167E0,-8.311141697E-1,-2.616881897E-1,-3.277405304E-1,9.309378749E-1
1.343630167E0,-8.591661867E-1,5.933856770E-2,-4.950539285E-1,9.933609587E-1
1.353611167E0,-9.168893149E-1,3.555475491E-1,-6.309250939E-1,1.168403419E0
1.363593167E0,-9.057044685E-1,5.446617061E-1,-8.279283142E-1,1.342543203E0
1.373575167E0,-8.168536878E-1,6.779726681E-1,-9.029972076E-1,1.393664537E0
1.383557167E0,-1.088401306E0,3.797278324E-1,-7.590030903E-1,1.380179815E0
1.393539167E0,-1.144001018E0,2.823825091E-2,-6.833073753E-1,1.332833334E0
1.403520167E0,-1.119811964E0,-5.903033173E-1,-9.181754100E-1,1.563803992E0
1.413502167E0,-1.063469217E0,-8.190200812E-1,-8.433316344E-1,1.585234656E0
1.423484167E0,-9.361392260E-1,-7.930226295E-1,-3.353413260E-1,1.271886530E0
1.433466167E0,-5.257317840E-1,-4.477037609E-1,5.226533711E-1,8.660248914E-1
1.443448167E0,1.701851119E-1,-1.632779422E-1,1.404902319E0,1.424560699E0
1.453430167E0,8.418753853E-1,-3.403953668E-1,1.870154743E0,2.078966554E0
1.463411167E0,1.065585909E0,-5.437222047E-1,2.086642056E0,2.405240577E0
1.473393167E0,5.310721922E-1,-7.125370216E-1,2.177341726E0,2.351715049E0
1.483375167E0,1.749983937E-2,-1.020495252E0,2.457214025E0,2.660755075E0
1.493357167E0,-3.978900151E-1,-1.254564411E0,3.055899911E0,3.327277054E0
1.503339167E0,-4.990019685E-1,-1.373539900E0,3.218803339E0,3.535011988E0
1.513320167E0,-3.967938083E-1,-1.350702723E0,3.019172965E0,3.331253302E0
1.523302167E0,-2.204911932E-1,-1.238898551E0,2.511076822E0,2.808735087E0
1.533284167E0,-1.568805036E-1,-1.258011198E0,1.833534801E0,2.229137397E0
1.543266167E0,-4.171530823E-1,-1.375913724E0,1.192686982E0,1.868062501E0
1.553248167E0,-6.772433741E-1,-1.547113328E0,4.181747371E-1,1.739852967E0
1.563229167E0,-4.919288841E-1,-1.309760811E0,-3.304752731E-1,1.437595672E0
1.573211167E0,-2.686415523E-1,-9.469059965E-1,-4.631053269E-1,1.087780214E0
1.583193167E0,-3.981817912E-1,-6.952833501E-1,-2.833642566E-1,8.498605636E-1
1.593175167E0,-7.554004745E-1,-5.664623187E-1,-2.039491278E-1,9.659734376E-1
1.603157167E0,-5.556426309E-1,-3.013669565E-1,-2.433441585E-1,6.773309053E-1
1.613139167E0,-1.633387533E-1,-9.793647677E-2,-6.060340816E-1,6.352546024E-1
1.623120167E0,-1.751200157E-1,-3.260783131E-1,-1.548109986E0,1.591740750E0
1.633102167E0,1.686437859E-1,-3.394425631E-1,-2.209390900E0,2.241666819E0
1.643084167E0,4.888077866E-1,-3.791349247E-1,-1.645217620E0,1.757673849E0
1.653066167E0,-1.300362289E-2,-4.603470491E-1,-2.151567199E0,2.200302232E0
1.663048167E0,-4.268953476E-1,-2.534357218E-1,-2.385031902E0,2.436154034E0
1.673029167E0,-3.663443597E-1,6.767421216E-2,-1.882146798E0,1.918662179E0
1.683011167E0,-2.647068147E-1,2.130861332E-1,-1.960938029E0,1.990164152E0
1.692992667E0,-2.051691493E-1,7.587493211E-2,-1.698229061E0,1.712259715E0
1.702974667E0,-1.117381715E-1,-5.715682536E-2,-1.119664029E0,1.126676467E0
1.712956667E0,-4.552810214E-2,-2.661292961E-1,-1.168229249E0,1.199023431E0
1.722937667E0,1.688096275E-1,-4.023403309E-1,-1.423822739E0,1.489176156E0
1.732919667E0,4.038647000E-1,-3.484360193E-1,-1.653177434E0,1.737098150E0
1.742901667E0,5.271319728E-1,-5.339624709E-1,-1.919732115E0,2.061153908E0
1.752883667E0,7.999428092E-1,-3.903536850E-1,-1.574607228E0,1.808776498E0
1.762865667E0,8.574498097E-1,1.742265612E-1,-1.088873177E0,1.396860718E0
1.772846667E0,7.272741247E-1,3.707609810E-1,-1.144246894E0,1.405593224E0
1.782828667E0,5.722151384E-1,2.977976699E-1,-1.251422848E0,1.407896573E0
1.792810667E0,3.471775523E-1,1.393919201E-1,-1.218725218E0,1.274854312E0
1.802792667E0,3.456269803E-1,2.087280571E-1,-1.262523787E0,1.325515645E0
1.812774667E0,3.630726233E-1,3.897623853E-1,-1.228543863E0,1.339050585E0
1.822755667E0,2.703798382E-1,4.854941694E-1,-1.249408482E0,1.367417786E0
1.832737667E0,3.066013840E-1,2.660005112E-1,-1.067901553E0,1.142442299E0
1.842719667E0,4.165625867E-2,9.898444399E-2,-1.109331415E0,1.114517542E0
1.852701667E0,-2.953339821E-1,3.774482954E-1,-1.001233939E0,1.110026476E0
1.862683667E0,-5.648387297E-1,7.725278462E-1,-7.661782086E-1,1.225916437E0
1.872665667E0,-7.712704025E-1,9.590221582E-1,-5.047386718E-1,1.330166403E0
1.882646667E0,-1.072495345E0,9.349398158E-1,-1.531385779E-1,1.431017172E0
1.892628667E0,-1.297117377E0,1.355060652E0,8.218963265E-2,1.877620301E0
1.902610667E0,-1.172347004E0,1.595659543E0,5.239578849E-1,2.048184255E0
1.912592667E0,-7.311275129E-1,1.467855781E0,6.030970252E-1,1.747247566E0
1.922574667E0,-1.632051444E-1,1.321175745E0,4.108148468E-1,1.393165499E0
1.932555667E0,-7.747458413E-2,9.953406765E-1,3.774149662E-1,1.067308498E0
1.942537667E0,4.701453745E-2,8.726762516E-1,1.398215443E-1,8.850560836E-1
1.952519667E0,-1.252181232E-2,9.633308253E-1,8.823448420E-2,9.674442614E-1
1.962501667E0,-6.748256966E-2,1.001085639E0,-2.051144779E-2,1.003567174E0
1.972483667E0,-7.643758044E-2,9.090492220E-1,1.409313458E-1,9.230789977E-1
1.982464667E0,-3.669095662E-1,6.955626277E-1,5.876024884E-1,9.816856336E-1
1.992446667E0,-5.480867127E-1,7.672665216E-1,8.914945650E-1,1.297636127E0
2.002428667E0,-7.345631906E-1,9.242146336E-1,1.199957410E0,1.683345941E0
2.012410667E0,-6.663381708E-1,1.084684962E0,1.188536628E0,1.741599076E0
2.022392667E0,-2.909670988E-1,1.124963142E0,1.072492202E0,1.581279054E0
2.032374667E0,3.943610743E-2,1.058710899E0,8.102358091E-1,1.333756365E0
2.042355667E0,5.382496494E-1,1.103016276E0,4.643496144E-1,1.312241652E0
2.052337667E0,6.718770920E-1,1.039912686E0,3.252560484E-1,1.280089340E0
2.062319667E0,3.139296994E-1,6.153475998E-1,-1.637723243E-1,7.099478142E-1
2.072301667E0,9.185538711E-1,8.305043051E-1,-1.364316210E0,1.842508436E0
2.082283667E0,1.394944072E0,1.370657954E0,-1.574660438E0,2.510802199E0
2.092264667E0,8.174106351E-1,1.303916958E0,-1.615345364E0,2.231076024E0
2.102246667E0,-1.967327866E-1,1.058678301E0,-2.078083486E0,2.340498774E0
2.112228667E0,-4.831203461E-1,1.093238123E0,-2.271106507E0,2.566417664E0
2.122210667E0,-5.328561777E-1,1.076041973E0,-2.302521257E0,2.596806919E0
2.132192667E0,-7.787641941E-1,6.990298073E-1,-1.693289334E0,1.990564018E0
2.142173667E0,-6.809114787E-1,1.609578036E-1,-8.210093039E-1,1.078704841E0
2.152155667E0,-3.658351403E-1,-2.890470011E-1,1.834061050E-1,5.010202771E-1
2.162137667E0,-3.311620286E-1,-7.282064632E-1,1.357224707E0,1.575440208E0
2.172119667E0,-7.046795332E-1,-9.664057298E-1,2.413490301E0,2.693594014E0
2.182101667E0,-8.973482126E-1,-1.073372135E0,3.151816467E0,3.448377676E0
2.192082667E0,-1.012999706E0,-1.183618974E0,3.495106498E0,3.826603156E0
2.202064667E0,-1.342586495E0,-1.370475521E0,3.394871188E0,3.899473302E0
2.212046667E0,-1.444090650E0,-1.469344044E0,3.017877222E0,3.654032382E0
2.222028667E0,-1.170916629E0,-1.228643412E0,2.887087871E0,3.349012804E0
2.232010667E0,-1.320657390E0,-1.306953417E0,2.973184029E0,3.506007194E0
2.241991667E0,-1.306401001E0,-1.409224727E0,3.124625745E0,3.668226268E0
2.251973667E0,-1.346503545E0,-1.407081284E0,3.127168699E0,3.684037677E0
2.261955667E0,-1.198671315E0,-1.605006610E0,2.927329579E0,3.547128078E0
2.271937667E0,-9.088157719E-1,-1.785944020E0,2.418345244E0,3.140690349E0
2.281919667E0,-6.541131046E-1,-1.852145465E0,1.653595510E0,2.567622419E0
2.291901667E0,-4.184790847E-1,-1.867781651E0,1.021110379E0,2.169423759E0
2.301882667E0,-2.739376679E-1,-1.638880992E0,4.505291355E-1,1.721612399E0
2.311864667E0,-3.074609247E-1,-1.522978068E0,1.008931214E-1,1.556975863E0
2.321846667E0,-1.233437982E-1,-1.421772413E0,-5.357102036E-2,1.428117762E0
2.331828667E0,2.317386049E-1,-1.168572992E0,-1.680144793E-1,1.203118649E0
2.341810667E0,2.389052448E-1,-9.213906477E-1,-1.199614763E-1,9.593889709E-1
2.351791667E0,6.973857164E-2,-7.154875997E-1,4.839681923E-2,7.205055349E-1
2.361773667E0,3.985523584E-1,-4.949738947E-1,1.349367803E-1,6.496545802E-1
2.371755667E0,8.129535949E-1,-2.203790729E-1,2.115949470E-1,8.684658340E-1
2.381737667E0,8.600526246E-1,-1.017845294E-1,2.557712460E-1,9.030335198E-1
2.391719667E0,7.848167932E-1,-2.668293540E-1,2.734643358E-1,8.728791703E-1
2.401700667E0,9.401223493E-1,-1.841768412E-1,3.344835395E-1,1.014707041E0
2.411682667E0,6.774411562E-1,-5.402315632E-1,5.791836673E-1,1.042223768E0
2.421664667E0,1.705887160E-1,-1.589656353E0,9.247336471E-1,1.846954290E0
2.431646667E0,3.236252600E-1,-2.151600675E0,2.085699484E0,3.014010801E0
2.441628667E0,2.012000594E-1,-1.616279749E0,1.182745546E0,2.012890638E0
2.451609667E0,4.549984547E-1,-9.312054185E-1,6.583245617E-1,1.227826679E0
2.461591667E0,7.971099794E-2,-1.024727321E0,1.307753170E-1,1.036109120E0
2.471573667E0,-2.925364915E-1,-1.116902828E0,-6.760404557E-1,1.337938797E0
2.481555667E0,-4.425523639E-1,-1.007192398E0,-1.428309892E0,1.802875001E0
2.491537667E0,-6.660475641E-1,-8.242344819E-1,-1.950466250E0,2.219752336E0
2.501519667E0,-1.044381713E0,-1.085508543E0,-2.126820613E0,2.606228670E0
2.511500667E0,-1.065867307E0,-1.080083496E0,-2.302792568E0,2.757808384E0
2.521482667E0,-8.920360172E-1,-9.868869182E-1,-2.586575485E0,2.908615957E0
2.531464667E0,-7.280619639E-1,-7.203512406E-1,-2.936630745E0,3.110109365E0
2.541446667E0,-6.140728337E-1,-2.563194224E-1,-3.503570343E0,3.566201093E0
2.551428667E0,3.122994956E-1,-1.264156330E-1,-3.775643041E0,3.790645362E0
2.561409667E0,1.550090730E0,8.435193300E-3,-3.485406552E0,3.814565671E0
2.571391667E0,2.077507828E0,4.859935217E-1,-2.862321990E0,3.570030203E0
2.581373667E0,1.608852616E0,4.498632838E-1,-2.597750684E0,3.088542104E0
2.591355667E0,1.367517561E-1,-6.760575588E-1,-2.636914165E0,2.725632253E0
2.601337667E0,-2.432251677E-1,-7.132234848E-1,-2.288797842E0,2.409655947E0
2.611318667E0,-1.588843444E-1,-4.478505260E-1,-1.937528116E0,1.994951009E0
2.621300667E0,-5.106092763E-1,-3.022083709E-1,-1.989295270E0,2.075896771E0
2.631282667E0,-1.250289950E0,-3.142377014E-1,-2.045739613E0,2.418061384E0
2.641264667E0,-1.447823513E0,-3.145521355E-1,-1.799754267E0,2.331148084E0
2.651246667E0,-1.219866595E0,-2.520247887E-1,-1.502194140E0,1.951455415E0
2.661227667E0,-1.072065940E0,-2.401400305E-1,-1.291945222E0,1.695911280E0
2.671209667E0,-1.080601121E0,-1.616676190E-1,-1.077143077E0,1.534298670E0
2.681191667E0,-1.142706737E0,7.097218797E-2,-8.770121813E-1,1.442208759E0
2.691173667E0,-1.300937655E0,1.327218550E-1,-9.274976259E-1,1.603217303E0
2.701155667E0,-1.431930196E0,-5.052842170E-2,-1.208614798E0,1.874493781E0
2.711137667E0,-1.978869685E0,-5.237416841E-1,-1.135414090E0,2.340810914E0
2.721118667E0,-2.496794413E0,-7.354133758E-1,-9.895845312E-1,2.784617158E0
2.731100667E0,-2.564745783E0,-6.849972206E-1,-9.593047249E-1,2.822659682E0
2.741082667E0,-2.329930665E0,-6.073394725E-1,-7.614700305E-1,2.525326662E0
2.751064667E0,-2.261678748E0,-5.754047580E-1,-4.599215180E-1,2.378614975E0
2.761046667E0,-2.060126394E0,-4.504383574E-1,-1.989415723E-1,2.118157979E0
2.771027667E0,-1.652300937E0,-2.516720554E-1,-6.699915111E-2,1.672700241E0
2.781009667E0,-1.150911550E0,-2.540337458E-2,-3.991017044E-2,1.151883479E0
2.790991667E0,-1.114969300E0,1.607808888E-1,-2.508338571E-2,1.126781350E0
2.800973667E0,-1.260253313E0,3.396976478E-1,7.398832798E-2,1.307328259E0
2.810955667E0,-1.260477846E0,4.305148472E-1,3.356284243E-1,1.373606157E0
2.820936667E0,-1.136819760E0,4.149564296E-1,6.328505820E-1,1.365667553E0
2.830918667E0,-8.414681268E-1,3.967731969E-1,9.887752765E-1,1.357635491E0
2.840900667E0,-8.369950068E-1,-2.998409794E-1,1.099908042E0,1.414306528E0
2.850882667E0,-1.025970585E0,-1.359047869E0,1.404994120E0,2.207631135E0
2.860864667E0,-9.571862787E-1,-1.407982193E0,2.042803726E0,2.659260516E0
2.870845667E0,-1.023513585E0,-1.155696765E0,2.671932555E0,3.085844884E0
2.880827667E0,-1.234226187E0,-8.945613565E-1,3.332928709E0,3.664964950E0
2.890809667E0,-1.438263023E0,-5.137256961E-1,3.550429344E0,3.864979061E0
2.900791667E0,-1.067146677E0,-1.573069118E-1,3.322555164E0,3.493267856E0
2.910773667E0,-5.720231670E-1,-1.196803714E-1,3.038440125E0,3.094131912E0
2.920755667E0,-1.349876511E-1,-1.276186245E-1,2.728143593E0,2.734460759E0
2.930736667E0,1.786950034E-1,-1.038354403E-1,2.398971664E0,2.407857709E0
2.940718667E0,5.955447614E-1,3.067230061E-2,1.977882675E0,2.065825314E0
2.950700667E0,8.481316137E-1,2.547361426E-2,1.336263608E0,1.582901314E0
2.960682667E0,9.516752779E-1,-9.247269228E-2,7.662255710E-1,1.225291255E0
2.970664667E0,8.674081296E-1,-1.054071718E-1,3.380825007E-1,9.369137166E-1
2.980645667E0,4.928360796E-1,-9.049721047E-2,1.261536777E-1,5.167125863E-1
2.990627667E0,-3.204332650E-2,-9.829608053E-2,7.379770875E-2,1.270236043E-1
3.000609667E0,-5.553071469E-1,-6.010236025E-2,2.236209154E-1,6.016515893E-1
3.010591667E0,-1.047856128E0,1.159046781E-1,2.260913640E-1,1.078217819E0
3.020573667E0,-9.875771821E-1,-1.412516271E-1,2.172532976E-2,9.978640702E-1
3.030554667E0,-8.716350818E-1,-4.722265448E-1,7.789485276E-2,9.943908856E-1
3.040536667E0,-4.119030136E-1,-8.650728978E-1,7.431577206E-2,9.610088684E-1
3.050518667E0,-2.738543451E-2,-1.163492565E0,5.007555485E-2,1.164891614E0
3.060500667E0,2.307697213E-1,-1.316402809E0,-8.009048223E-2,1.338874716E0
3.070482667E0,3.621782917E-1,-1.336138916E0,-2.054653108E-1,1.399520030E0
3.080463667E0,4.841009241E-1,-1.116930749E0,-3.341502482E-1,1.262356681E0
3.090445667E0,7.518735802E-1,-7.771972865E-1,-1.711620355E-1,1.094826902E0
3.100427667E0,9.886770433E-1,-5.839843775E-1,-7.410702646E-2,1.150657160E0
3.110409667E0,1.196880605E0,-9.837798540E-1,-5.439530236E-1,1.642020364E0
3.120391667E0,1.720080691E0,-1.345346381E0,-1.029183045E0,2.414094490E0
3.130372667E0,2.151903999E0,-1.390600322E0,-1.562918059E0,3.001195251E0
3.140354667E0,2.598849376E0,-1.368305473E0,-1.932991261E0,3.516067855E0
3.150336667E0,2.896712388E0,-1.420485441E0,-2.345921631E0,3.988993588E0
3.160318667E0,2.914196148E0,-1.484323295E0,-2.905572090E0,4.374711876E0
3.170300667E0,3.058023035E0,-1.411754671E0,-3.110396546E0,4.584661689E0
3.180282667E0,2.937731191E0,-1.446582149E0,-3.414363467E0,4.730828928E0
3.190263667E0,2.895827705E0,-1.458757221E0,-3.503258686E0,4.773532460E0
3.200245667E0,2.965414833E0,-1.464833356E0,-3.317724195E0,4.684732193E0
3.210227667E0,2.730437456E0,-1.527391254E0,-3.206020741E0,4.479596157E0
3.220209667E0,2.827021764E0,-1.574388250E0,-3.415967942E0,4.705272298E0
3.230191667E0,2.781670759E0,-1.658163063E0,-3.573950354E0,4.822895198E0
3.240172667E0,2.671143765E0,-1.602114869E0,-3.614868584E0,4.771693195E0
3.250154667E0,2.499506351E0,-1.362706472E0,-3.901344729E0,4.829595389E0
3.260136667E0,2.077954262E0,-1.280239681E0,-4.424728417E0,5.053229574E0
3.270118667E0,1.559462355E0,-1.131810743E0,-4.520381849E0,4.913936350E0
3.280100667E0,1.145234488E0,-8.170245726E-1,-4.184003811E0,4.414179321E0
3.290081667E0,8.987410194E-1,-7.451289631E-1,-3.649694016E0,3.831868865E0
3.300063667E0,6.596828699E-1,-7.023627202E-1,-2.982324396E0,3.134127260E0
3.310045667E0,3.255484092E-1,-8.484416623E-1,-2.557539382E0,2.714192829E0
3.320027667E0,2.819784665E-1,-5.754104590E-1,-2.298191979E0,2.385853186E0
3.330009667E0,1.089920998E-3,-2.018086083E-1,-2.060307366E0,2.070167709E0
3.339990667E0,-6.026573145E-1,-1.592642672E-1,-1.853474976E0,1.955487262E0
3.349972667E0,-1.142719601E0,-2.708819861E-1,-1.364160089E0,1.800032746E0
3.359954667E0,-2.275136408E0,-2.759891635E-1,-7.349277645E-1,2.406768479E0
3.369936667E0,-3.134465439E0,4.949134491E-2,-1.699826521E-1,3.139461273E0
3.379918667E0,-3.370674825E0,4.172622791E-1,4.648811263E-1,3.428071039E0
3.389900667E0,-3.462813495E0,7.058400594E-1,5.123143244E-1,3.570959739E0
3.399881667E0,-3.591942821E0,9.703571320E-1,4.522248280E-1,3.748086644E0
3.409863667E0,-3.922186545E0,1.325715962E0,7.044824821E-1,4.199686378E0
3.419845667E0,-4.137862848E0,1.741942261E0,1.032190853E0,4.606700527E0
3.429827667E0,-4.680835294E0,1.992558455E0,1.418265545E0,5.281286340E0
3.439809667E0,-4.988965432E0,1.943208832E0,1.356838206E0,5.523300333E0
3.449790667E0,-5.181489100E0,1.700054124E0,1.666992651E0,5.702357216E0
3.459772667E0,-5.146929717E0,1.599656554E0,2.259671107E0,5.844304930E0
3.469754667E0,-5.058954265E0,1.559666423E0,2.674852654E0,5.931307977E0
3.479736667E0,-4.877259640E0,1.421092674E0,3.292177125E0,6.053560622E0
3.489718667E0,-4.609315660E0,1.459970372E0,4.168606923E0,6.383932019E0
3.499699667E0,-4.207375132E0,1.722187150E0,4.940092649E0,6.713601826E0
3.509681667E0,-3.921911725E0,1.891556137E0,5.655612921E0,7.137599996E0
3.519663667E0,-3.684124176E0,2.154209848E0,6.260620816E0,7.576857133E0
3.529645667E0,-3.332329370E0,2.382671089E0,6.461598973E0,7.650738647E0
3.539627667E0,-2.825188077E0,2.562437887E0,6.294967360E0,7.360325378E0
3.549608667E0,-2.441814213E0,2.707570457E0,5.990872970E0,7.013127218E0
3.559590667E0,-2.021185400E0,2.546423240E0,5.161958231E0,6.100432322E0
3.569572667E0,-1.373905059E0,2.194577710E0,3.939597214E0,4.714256319E0
3.579554667E0,-6.743202049E-1,1.819658774E0,2.748798590E0,3.364782234E0
3.589536667E0,-7.835502863E-2,1.451450541E0,1.760074769E0,2.282698266E0
3.599517667E0,3.741422796E-1,1.113671657E0,9.982287624E-1,1.541657441E0
3.609499667E0,6.135512620E-1,7.474607597E-1,4.511939639E-1,1.067107648E0
3.619481667E0,6.264051962E-1,3.434428260E-1,1.053212178E-1,7.221004109E-1
3.629463667E0,4.200025767E-1,-1.251934553E-3,-4.273905337E-2,4.221733749E-1
3.639445667E0,8.449518979E-2,-2.415993311E-1,-1.039266568E-1,2.762434142E-1
3.649427667E0,-2.329209119E-1,-4.144894563E-1,-2.177450484E-1,5.229403090E-1
3.659408667E0,-4.944785625E-1,-6.012372451E-1,-3.777006027E-1,8.652473744E-1
3.669390667E0,-7.682457840E-1,-8.105044886E-1,-5.492318898E-1,1.244497802E0
3.679372667E0,-1.047454425E0,-1.014453543E0,-7.092231122E-1,1.621503680E0
3.689355375E0,-1.233680057E0,-1.240975920E0,-7.560932234E-1,1.906217375E0
3.699337375E0,-1.276377595E0,-1.383172896E0,-6.512079155E-1,1.991576957E0
3.709318375E0,-1.097018348E0,-1.313947125E0,-5.727055371E-1,1.804964802E0
3.719300375E0,-9.278379339E-1,-1.374335122E0,-5.500160015E-1,1.747054052E0
3.729282375E0,-7.821516323E-1,-1.613552462E0,-6.265665793E-1,1.899446867E0
3.739264375E0,-4.319121855E-1,-1.750006741E0,-7.687118071E-1,1.959589133E0
3.749246375E0,-1.881750941E-2,-1.816580507E0,-8.579312548E-1,2.009070649E0
3.759227375E0,3.187808418E-1,-2.049676981E0,-9.500900978E-1,2.281549506E0
3.769209375E0,6.923705596E-1,-2.291022562E0,-1.107217646E0,2.637061297E0
3.779191375E0,1.047690652E0,-2.513005818E0,-1.295017349E0,3.014950062E0
3.789173375E0,1.277575690E0,-2.793766894E0,-1.427532213E0,3.387503700E0
3.799155375E0,1.475972886E0,-3.037826752E0,-1.595531197E0,3.735318880E0
3.809136375E0,1.697383554E0,-3.200732227E0,-1.831240646E0,4.059463021E0
3.819118375E0,1.871997201E0,-3.371978754E0,-2.130533010E0,4.406107710E0
3.829100375E0,2.058011164E0,-3.525745908E0,-2.415104132E0,4.743313412E0
3.839082375E0,2.232341806E0,-3.530673941E0,-2.562204583E0,4.900398019E0
3.849064375E0,2.433836272E0,-3.738197472E0,-2.811209431E0,5.272625324E0
3.859046375E0,2.598485094E0,-3.883736424E0,-3.047701530E0,5.578890392E0
3.869027375E0,2.733088583E0,-3.963646519E0,-3.228467032E0,5.796832438E0
3.879009375E0,2.864129949E0,-3.993731321E0,-3.326214936E0,5.934377476E0
3.888991375E0,2.933987219E0,-4.065335155E0,-3.273710448E0,5.987688287E0
3.898973375E0,2.991467103E0,-4.104625520E0,-3.120372773E0,5.961002628E0
3.908955375E0,3.136982081E0,-4.072838302E0,-2.774752626E0,5.841910693E0
3.918936375E0,3.172210386E0,-4.018386106E0,-2.388882001E0,5.649522355E0
3.928918375E0,3.363082801E0,-3.972543350E0,-2.249677338E0,5.670315222E0
3.938900375E0,3.470592046E0,-4.127506260E0,-2.267739387E0,5.850124700E0
3.948882375E0,3.409896778E0,-4.338084961E0,-2.334048275E0,5.991173384E0
3.958864375E0,3.212522845E0,-4.377711541E0,-2.444015690E0,5.954651464E0
3.968845375E0,2.739757333E0,-4.336690400E0,-2.499173060E0,5.706051161E0
3.978827375E0,2.132811670E0,-4.329424357E0,-2.258893135E0,5.328733347E0
3.988809375E0,1.425557608E0,-4.331217991E0,-1.810098576E0,4.905927092E0
3.998791375E0,5.125984991E-1,-4.317036738E0,-1.195778405E0,4.508819071E0
4.008773375E0,-1.917015499E-1,-3.855670666E0,-4.875364557E-1,3.891097218E0
4.018754375E0,-5.401166654E-1,-3.274983095E0,-1.054568732E-1,3.320897685E0
4.028736375E0,-1.273277401E0,-3.133015037E0,7.220960498E-2,3.382636958E0
4.038718375E0,-2.184165426E0,-3.170546853E0,1.414631501E-1,3.852655938E0
4.048700375E0,-2.746662310E0,-3.205542146E0,5.073950619E-2,4.221638165E0
4.058682375E0,-2.883431023E0,-3.281772297E0,-1.664369005E-1,4.371716495E0
4.068663375E0,-2.680689345E0,-3.443611824E0,-5.406177717E-1,4.397365727E0
4.078645375E0,-2.530317085E0,-3.743681576E0,-9.188218197E-1,4.611061681E0
4.088627375E0,-2.352312053E0,-3.941975861E0,-1.006363117E0,4.699501293E0
4.098609375E0,-2.064775223E0,-4.044644782E0,-7.504211318E-1,4.602779596E0
4.108591375E0,-1.777596828E0,-4.031527138E0,-2.705550537E-1,4.414324590E0
4.118573375E0,-1.578390377E0,-3.877720224E0,3.168138385E-1,4.198618978E0
4.128554375E0,-1.429094004E0,-3.614706032E0,9.595840757E-1,4.003649706E0
4.138536375E0,-1.354587613E0,-3.179887780E0,1.657881958E0,3.833427511E0
4.148518375E0,-1.338047594E0,-2.582304679E0,2.385303652E0,3.761428230E0
4.158500375E0,-1.284644389E0,-1.887742291E0,2.909166958E0,3.698261017E0
4.168482375E0,-1.234553046E0,-1.207676319E0,3.176999255E0,3.616065208E0
4.178463375E0,-1.133935913E0,-5.570961025E-1,3.205542439E0,3.445528849E0
4.188445375E0,-1.047092482E0,2.182941020E-2,3.153845451E0,3.323194294E0
4.198427375E0,-1.086124985E0,4.576431504E-1,3.070105137E0,3.288563560E0
4.208409375E0,-1.176140531E0,6.610534573E-1,2.895141826E0,3.194079588E0
4.218391375E0,-1.262819071E0,7.402192023E-1,2.593773408E0,2.978304378E0
4.228372375E0,-1.258289818E0,8.470905170E-1,2.217248973E0,2.686456517E0
4.238354375E0,-1.260204197E0,9.013480005E-1,1.863515815E0,2.423475609E0
4.248336375E0,-1.362436915E0,8.236671558E-1,1.562367252E0,2.230617260E0
4.258318375E0,-1.483268457E0,7.492587054E-1,1.324697231E0,2.125158036E0
4.268300375E0,-1.797695462E0,5.104537404E-1,1.139503632E0,2.188776033E0
4.278281375E0,-2.021957232E0,4.812229246E-1,1.110744687E0,2.356616284E0
4.288263375E0,-2.232514299E0,5.143281054E-1,1.278484932E0,2.623580990E0
4.298245375E0,-2.295725623E0,5.293484330E-1,1.562922737E0,2.827241303E0
4.308227375E0,-2.126560412E0,8.627204168E-1,1.876282625E0,2.964284432E0
4.318209375E0,-1.967515562E0,1.335375709E0,1.986754655E0,3.098635156E0
4.328190375E0,-1.702737265E0,1.717897925E0,2.046583951E0,3.168437050E0
4.338172375E0,-1.424872899E0,1.975780016E0,2.151389444E0,3.249991691E0
4.348154375E0,-1.124897287E0,2.137711052E0,2.161013376E0,3.241169737E0
4.358136375E0,-7.144543236E-1,2.202198824E0,2.055737767E0,3.096156070E0
4.368118375E0,-2.846582454E-1,2.202419849E0,2.020749782E0,3.002517809E0
4.378100375E0,6.091278434E-2,2.177058136E0,2.008775269E0,2.962848389E0
4.388081375E0,2.841998237E-1,2.120572863E0,2.018147771E0,2.941176505E0
4.398063375E0,3.687435454E-1,2.125441255E0,1.949551746E0,2.907614888E0
4.408045375E0,4.195137495E-1,2.146850835E0,1.841886964E0,2.859634222E0
4.418027375E0,4.570686615E-1,2.117540497E0,1.707984556E0,2.758641108E0
4.428009375E0,4.467611897E-1,2.098309005E0,1.525477168E0,2.632408941E0
4.437990375E0,3.433642906E-1,2.067425181E0,1.368508079E0,2.502990267E0
4.447972375E0,2.155084884E-1,2.066276203E0,1.154703469E0,2.376821693E0
4.457954375E0,1.482818806E-1,2.063949012E0,9.208586973E-1,2.264918051E0
4.467936375E0,7.843981326E-2,2.095771898E0,6.478697401E-1,2.195027985E0
4.477918375E0,3.795193791E-2,2.168491965E0,3.938082200E-1,2.204287337E0
4.487899375E0,4.776590466E-2,2.189686952E0,2.154166871E-1,2.200775972E0
4.497881375E0,4.350328445E-2,2.191206059E0,1.868255568E-1,2.199586397E0
4.507863375E0,-8.144060433E-2,2.192323462E0,2.747542316E-1,2.210973682E0
4.517845375E0,-2.607138973E-1,2.192389535E0,3.827710158E-1,2.240771577E0
4.527827375E0,-4.634982598E-1,2.160678331E0,4.179688420E-1,2.249012992E0
4.537808375E0,-6.311507964E-1,2.182483183E0,5.127410980E-1,2.329052941E0
4.547790375E0,-7.622740227E-1,2.236852933E0,5.679855915E-1,2.430469165E0
4.557772375E0,-9.203926742E-1,2.256808895E0,5.424952396E-1,2.496920132E0
4.567754375E0,-1.129260480E0,2.233360391E0,4.282342869E-1,2.538998320E0
4.577736375E0,-1.318537189E0,2.142247322E0,2.675281694E-1,2.529690738E0
4.587717375E0,-1.425459375E0,2.095584787E0,1.056183294E-1,2.536644488E0
4.597699375E0,-1.565970306E0,2.060894426E0,-4.778695464E-2,2.588789761E0
4.607681375E0,-1.743153219E0,1.998896399E0,-2.704022221E-1,2.665949609E0
4.617663375E0,-1.873598753E0,1.996538801E0,-4.908685646E-1,2.781634667E0
4.627645375E0,-2.042213742E0,1.960277878E0,-6.505583630E-1,2.904574411E0
4.637626375E0,-2.246152344E0,1.816890702E0,-8.759591708E-1,3.018873407E0
4.647608375E0,-2.528909075E0,1.596015054E0,-1.066226983E0,3.174820490E0
4.657590375E0,-2.796006963E0,1.282316027E0,-1.230852490E0,3.313153661E0
4.667572375E0,-3.026779608E0,8.778062332E-1,-1.442638494E0,3.465998327E0
4.677554375E0,-3.275647631E0,4.040975654E-1,-1.519039530E0,3.633268960E0
4.687535375E0,-3.427543091E0,3.415417135E-2,-1.406080094E0,3.704899375E0
4.697517375E0,-3.319155008E0,-4.019317567E-2,-1.126733313E0,3.505414871E0
4.707499375E0,-3.205558226E0,8.836838543E-2,-8.115245354E-1,3.307867075E0
4.717481375E0,-3.031086667E0,3.269821465E-1,-6.009294623E-1,3.107333249E0
4.727463375E0,-2.793022544E0,6.054288948E-1,-4.304072584E-1,2.890115826E0
4.737445375E0,-2.675758388E0,7.974356693E-1,-2.725357980E-1,2.805327496E0
4.747426375E0,-2.636287344E0,8.038719919E-1,-2.091344386E-1,2.764047458E0
4.757408375E0,-2.446237047E0,7.353627974E-1,-2.273186946E-1,2.564470301E0
4.767390375E0,-2.262080745E0,5.857658780E-1,-3.215822428E-1,2.358717045E0
4.777372375E0,-2.141572554E0,4.309231290E-1,-4.659007345E-1,2.233627373E0
4.787354375E0,-1.984287130E0,4.075781205E-1,-6.497057658E-1,2.127353502E0
4.797335375E0,-1.827664781E0,5.048968390E-1,-8.204315990E-1,2.066007594E0
4.807317375E0,-1.712299801E0,6.640741289E-1,-1.006994031E0,2.094517137E0
4.817299375E0,-1.535697516E0,9.387883070E-1,-1.262764838E0,2.198696292E0
4.827281375E0,-1.317596372E0,1.218225281E0,-1.562007063E0,2.379075262E0
4.837263375E0,-1.125950371E0,1.454549857E0,-1.911714121E0,2.652947494E0
4.847244375E0,-9.722563076E-1,1.582153645E0,-2.254448374E0,2.920792693E0
4.857226375E0,-7.874538875E-1,1.530736446E0,-2.585967375E0,3.106519750E0
4.867208375E0,-6.193277264E-1,1.274172318E0,-2.815373526E0,3.151731273E0
4.877190375E0,-4.583240587E-1,9.166413930E-1,-2.899326094E0,3.075123442E0
4.887172375E0,-3.118004358E-1,5.041451794E-1,-2.885452405E0,2.945711706E0
4.897153375E0,-2.465203661E-1,3.308266908E-2,-2.763563687E0,2.774734402E0
4.907135375E0,-2.866854751E-1,-4.311298281E-1,-2.512340405E0,2.565134655E0
4.917117375E0,-3.316505635E-1,-8.362217125E-1,-2.233734028E0,2.408075280E0
4.927099375E0,-4.113130295E-1,-1.140931815E0,-1.878829672E0,2.236270277E0
4.937081375E0,-4.603062648E-1,-1.312120747E0,-1.476193326E0,2.027976688E0
4.947062375E0,-4.445895338E-1,-1.390268200E0,-1.108723450E0,1.832968415E0
4.957044375E0,-3.864337116E-1,-1.378844787E0,-7.908401562E-1,1.635839880E0
4.967026375E0,-3.250239140E-1,-1.275490572E0,-4.562377721E-1,1.393079197E0
4.977008375E0,-2.349200749E-1,-1.134417139E0,-1.574335040E-1,1.169134293E0
4.986990375E0,-1.207619601E-1,-9.856315210E-1,6.449435011E-2,9.950942003E-1
4.996971375E0,-6.972219944E-3,-8.760348192E-1,2.098378587E-1,9.008426851E-1
5.006953375E0,7.067003310E-2,-8.375256416E-1,3.318558007E-1,9.036435837E-1
5.016935375E0,1.255590159E-1,-8.206944314E-1,4.557542074E-1,9.471094518E-1
5.026917375E0,2.299990582E-1,-8.011650234E-1,5.455113065E-1,9.961664254E-1
5.036899375E0,3.450471193E-1,-8.397820821E-1,5.312614958E-1,1.051917410E0
5.046880375E0,4.820076209E-1,-9.602853030E-1,4.294790129E-1,1.157122047E0
5.056862375E0,6.754300064E-1,-1.100416750E0,3.553664316E-1,1.339181846E0
5.066844375E0,9.764206946E-1,-1.209044276E0,1.918641025E-1,1.565885458E0
5.076826375E0,1.315003132E0,-1.348551532E0,-2.710359871E-2,1.883761948E0
5.086808375E0,1.565187364E0,-1.481939093E0,-1.789861947E-1,2.162866389E0
5.096790375E0,1.762195262E0,-1.612406115E0,-2.894254804E-1,2.406024258E0
5.106771375E0,1.914455588E0,-1.724034286E0,-3.280463398E-1,2.597123181E0
5.116753375E0,2.055888040E0,-1.854398544E0,-3.533694613E-1,2.791117978E0
5.126735375E0,2.115219737E0,-2.031793565E0,-3.926809499E-1,2.959144801E0
5.136717375E0,2.133598121E0,-2.229730293E0,-3.076367066E-1,3.101383315E0
5.146699375E0,2.138905638E0,-2.384673614E0,-2.408241548E-1,3.212410598E0
5.156680375E0,2.137617497E0,-2.564577968E0,-2.351666813E-1,3.346904851E0
5.166662375E0,2.144676840E0,-2.715611840E0,-2.396867982E-1,3.468664899E0
5.176644375E0,2.171738924E0,-2.893306385E0,-2.100682390E-1,3.623782617E0
5.186626375E0,2.301153009E0,-2.971677201E0,-1.338380885E-1,3.760862028E0
5.196608375E0,2.392324550E0,-2.978097444E0,-3.370393574E-2,3.820133125E0
5.206589375E0,2.479246919E0,-2.941052117E0,9.305726767E-2,3.847741220E0
5.216571375E0,2.498670200E0,-2.870918858E0,2.624820954E-1,3.815026174E0
5.226553375E0,2.398627848E0,-2.742943481E0,3.636383414E-1,3.661883031E0
5.236535375E0,2.281360184E0,-2.618614719E0,3.837188494E-1,3.494136158E0
5.246517375E0,2.097693293E0,-2.568312292E0,3.377720135E-1,3.333261933E0
5.256498375E0,1.948713255E0,-2.502797164E0,3.647001958E-1,3.192880084E0
5.266480375E0,1.812165567E0,-2.392687808E0,4.150798789E-1,3.030047903E0
5.276462375E0,1.666138957E0,-2.367987853E0,3.987351570E-1,2.922734203E0
5.286444375E0,1.518252933E0,-2.407542513E0,3.197679249E-1,2.864193507E0
5.296426375E0,1.352147570E0,-2.432524157E0,2.519261169E-1,2.794448710E0
5.306407375E0,1.161083366E0,-2.452999937E0,1.956641348E-1,2.720957134E0
5.316389375E0,9.968976438E-1,-2.457649643E0,1.242440502E-1,2.655048637E0
5.326371375E0,8.091733700E-1,-2.396532791E0,1.268904269E-1,2.532633440E0
5.336353375E0,6.872057140E-1,-2.241097865E0,1.659510700E-1,2.349959806E0
5.346335375E0,5.877662104E-1,-1.986471942E0,2.157167224E-1,2.082804264E0
5.356316375E0,3.740610033E-1,-1.821467025E0,1.923558533E-1,1.869402186E0
5.366298375E0,-9.306720793E-2,-1.732632324E0,6.787330985E-2,1.736457043E0
5.376280375E0,-7.966878104E-1,-1.745757277E0,-1.072964072E-1,1.921950170E0
5.386262375E0,-1.560166360E0,-1.836643181E0,-2.655192123E-1,2.424433479E0
5.396244375E0,-2.069178177E0,-1.872381948E0,-3.533467302E-1,2.812857337E0
5.406225375E0,-2.312537538E0,-1.865525795E0,-3.795046880E-1,2.995336402E0
5.416207375E0,-2.206543306E0,-1.803853457E0,-3.722623998E-1,2.874247719E0
5.426189375E0,-1.834813002E0,-1.628470902E0,-3.417457082E-1,2.476942946E0
5.436171375E0,-1.448180485E0,-1.337313476E0,-2.709103085E-1,1.989730245E0
5.446153375E0,-1.104041439E0,-1.034003197E0,-1.489993340E-1,1.519957536E0
5.456134375E0,-1.003152410E0,-8.433845517E-1,7.727212429E-2,1.312853092E0
5.466116375E0,-9.315538394E-1,-6.079513836E-1,4.982628439E-1,1.218877887E0
5.476098375E0,-9.691087514E-1,-2.981217518E-1,1.040978048E0,1.453163325E0
5.486080375E0,-1.016941899E0,6.526282042E-2,1.522082275E0,1.831710816E0
5.496062375E0,-9.918637758E-1,5.536699265E-1,1.906527348E0,2.219277059E0
5.506043375E0,-8.531327373E-1,1.206611834E0,2.153407318E0,2.611687321E0
5.516025375E0,-5.943262017E-1,1.831056459E0,2.104313511E0,2.852039050E0
5.526007375E0,-3.815583032E-1,2.372008691E0,1.851698592E0,3.033281992E0
5.535989375E0,-1.123045474E-1,2.969662543E0,1.582137857E0,3.366699887E0
5.545971375E0,1.692301154E-2,3.452774118E0,1.273653962E0,3.680235036E0
5.555953375E0,-7.132726014E-2,3.704362851E0,9.174614650E-1,3.816952613E0
5.565934375E0,-2.968935442E-1,3.746741424E0,5.880948240E-1,3.804217737E0
5.575916375E0,-5.229732138E-1,3.675688983E0,2.543585587E-1,3.721409512E0
5.585898375E0,-8.421540052E-1,3.530083957E0,-2.591135601E-2,3.629240625E0
5.595880375E0,-1.275275980E0,3.307247738E0,-1.934440202E-1,3.549878451E0
5.605862375E0,-1.751880189E0,3.015955827E0,-2.248921001E-1,3.495089441E0
5.615843375E0,-2.272340854E0,2.715369181E0,-1.788125324E-1,3.545241412E0
5.625825375E0,-2.796339669E0,2.394285121E0,-6.009182612E-2,3.681810399E0
5.635807375E0,-3.280140631E0,2.131735783E0,9.697488388E-2,3.913185932E0
5.645789375E0,-3.669469884E0,2.004933064E0,2.808254139E-1,4.190898321E0
5.655771375E0,-3.859491529E0,1.958923078E0,3.900279951E-1,4.345707805E0
5.665752375E0,-3.931306447E0,1.945124234E0,4.685421045E-1,4.411146151E0
5.675734375E0,-3.746762474E0,1.930402699E0,4.914129039E-1,4.243367796E0
5.685716375E0,-3.338709267E0,1.939799175E0,4.997778940E-1,3.893530320E0
5.695698417E0,-2.737780389E0,1.986751732E0,5.498639373E-1,3.427094141E0
5.705680417E0,-1.997403604E0,1.997618197E0,8.153100228E-1,2.940209185E0
5.715661417E0,-1.257783449E0,1.800323786E0,1.002809179E0,2.414293103E0
5.725643417E0,-7.244530624E-1,1.640304497E0,1.194420097E0,2.154546460E0
5.735625417E0,-2.324759388E-1,1.597389734E0,1.047362623E0,1.924231662E0
5.745607417E0,1.388737106E-1,1.414687342E0,8.237955022E-1,1.642944068E0
5.755589417E0,2.947598952E-1,1.271803903E0,6.656914687E-1,1.465439762E0
5.765570417E0,3.691095811E-1,1.242837089E0,4.475903249E-1,1.371576834E0
5.775552417E0,4.668609935E-1,1.263628034E0,1.307893503E-1,1.353447764E0
5.785534417E0,5.409598339E-1,1.225803857E0,-2.472606236E-1,1.362486864E0
5.795516417E0,7.259622288E-1,1.144272914E0,-6.963355565E-1,1.523569777E0
5.805498417E0,1.026634244E0,1.077960810E0,-1.105860507E0,1.854428441E0
5.815479417E0,1.307367838E0,9.458622685E-1,-1.286527192E0,2.063738915E0
5.825461417E0,1.557791221E0,7.946690592E-1,-1.425381022E0,2.256085871E0
5.835443417E0,1.721584010E0,5.783825988E-1,-1.638326091E0,2.445912982E0
5.845425417E0,1.856393906E0,4.512562367E-1,-1.737733435E0,2.582546808E0
5.855407417E0,1.868732116E0,3.665686736E-1,-1.778237683E0,2.605506010E0
5.865388417E0,1.773919514E0,2.907501671E-1,-1.770095435E0,2.522808742E0
5.875370417E0,1.745761077E0,3.173970982E-1,-1.751723483E0,2.493382806E0
5.885352417E0,1.657006776E0,3.641473415E-1,-1.766919812E0,2.449546971E0
5.895334417E0,1.501932185E0,4.615742335E-1,-1.731834179E0,2.338397033E0
5.905316417E0,1.322729058E0,5.341753095E-1,-1.739475321E0,2.249606591E0
5.915297417E0,1.089146826E0,6.413223204E-1,-1.689245984E0,2.109759968E0
5.925279417E0,8.881218910E-1,7.472431701E-1,-1.600297555E0,1.976887734E0
5.935261417E0,6.253684849E-1,7.690024137E-1,-1.656408606E0,1.930321197E0
5.945243417E0,3.481414658E-1,7.538104704E-1,-1.767040265E0,1.952399550E0
5.955225417E0,6.042980433E-2,6.944384274E-1,-1.880712476E0,2.005735752E0
5.965207417E0,-1.250467998E-1,6.327429932E-1,-2.032088557E0,2.131990689E0
5.975188417E0,-2.773901564E-1,5.000217229E-1,-2.147248446E0,2.222080761E0
5.985170417E0,-4.232431036E-1,3.476564392E-1,-2.144755778E0,2.213589183E0
5.995152417E0,-5.153361654E-1,1.979861373E-1,-2.188484765E0,2.257041302E0
6.005134417E0,-5.875837773E-1,2.015736964E-1,-2.129709138E0,2.218456144E0
6.015116417E0,-6.374014699E-1,3.707465091E-1,-1.967285181E0,2.100938979E0
6.025097417E0,-6.717228717E-1,6.012381953E-1,-1.740276389E0,1.959913492E0
6.035079417E0,-6.067322391E-1,8.535780028E-1,-1.596416319E0,1.909257573E0
6.045061417E0,-5.615022719E-1,1.015791459E0,-1.552135355E0,1.938102487E0
6.055043417E0,-7.647748768E-1,9.177693209E-1,-1.637554405E0,2.027009020E0
6.065025417E0,-1.190061582E0,4.494874540E-1,-1.840919981E0,2.237693437E0
6.075006417E0,-1.521009310E0,-2.429439166E-1,-1.983807220E0,2.511569660E0
6.084988417E0,-1.781134393E0,-9.716672006E-1,-1.959400942E0,2.820607900E0
6.094970417E0,-2.010342908E0,-1.565212507E0,-1.717840476E0,3.072839843E0
6.104952417E0,-2.171521992E0,-1.993810198E0,-1.403901860E0,3.265230053E0
6.114934417E0,-2.151461365E0,-2.125000667E0,-1.056743311E0,3.203298342E0
6.124915417E0,-2.015908872E0,-1.902323200E0,-6.297036105E-1,2.842401938E0
6.134897417E0,-1.897913815E0,-1.326025426E0,-1.224354333E-1,2.318493199E0
6.144879417E0,-1.871153448E0,-5.469108376E-1,3.693533369E-1,1.984124133E0
6.154861417E0,-1.757941412E0,2.038427085E-1,6.591774512E-1,1.888498020E0
6.164843417E0,-1.796896732E0,8.962112215E-1,7.646508428E-1,2.148656169E0
6.174824417E0,-1.830890690E0,1.554866736E0,8.624976379E-1,2.552189934E0
6.184806417E0,-1.851440145E0,2.049770391E0,8.540010488E-1,2.891142863E0
6.194788417E0,-1.963876255E0,2.309956284E0,6.666918542E-1,3.104381743E0
6.204770417E0,-2.096877607E0,2.295933784E0,3.240491100E-1,3.126214238E0
6.214752417E0,-2.087272970E0,1.999314767E0,-2.016024940E-1,2.897345605E0
6.224733417E0,-1.775523990E0,1.457446568E0,-9.067860572E-1,2.469594479E0
6.234715417E0,-1.410994533E0,8.560309097E-1,-1.564741806E0,2.274227651E0
6.244697417E0,-1.198594424E0,2.129520857E-1,-2.004367638E0,2.345094201E0
6.254679417E0,-9.951253527E-1,-4.124815956E-1,-2.235992807E0,2.481950718E0
6.264661417E0,-9.075393248E-1,-9.902438048E-1,-2.406636779E0,2.756104317E0
6.274642417E0,-8.681670982E-1,-1.477467581E0,-2.426150107E0,2.970324714E0
6.284624417E0,-7.121704012E-1,-1.798415254E0,-2.408506719E0,3.089075707E0
6.294606417E0,-5.434647810E-1,-1.959414390E0,-2.307651604E0,3.075697425E0
6.304588417E0,-4.968291432E-1,-2.022827737E0,-2.059413326E0,2.929138866E0
6.314570417E0,-5.898022109E-1,-1.977908257E0,-1.604787632E0,2.614446607E0
6.324551417E0,-6.417371804E-1,-1.924867871E0,-1.077385225E0,2.297324934E0
6.334533417E0,-5.424643224E-1,-1.955779323E0,-6.064053798E-1,2.118269998E0
6.344515417E0,-2.913123769E-1,-2.004036101E0,-1.828816098E-1,2.033339440E0
6.354497417E0,2.182648659E-2,-2.014174150E0,1.940416056E-1,2.023617070E0
6.364479417E0,4.121930355E-1,-2.054921203E0,4.988481867E-1,2.154403343E0
6.374460417E0,8.628894013E-1,-2.105514383E0,6.989586174E-1,2.380401664E0
6.384442417E0,1.307002972E0,-2.185093672E0,7.836888653E-1,2.664030661E0
6.394424417E0,1.688140275E0,-2.298610640E0,8.070215216E-1,2.963901516E0
6.404406417E0,2.049597605E0,-2.425907740E0,7.532645597E-1,3.263937225E0
6.414388417E0,2.408005612E0,-2.514715544E0,6.571779227E-1,3.543186154E0
6.424369417E0,2.731556028E0,-2.553846573E0,4.740197396E-1,3.769379971E0
6.434351417E0,2.962925089E0,-2.590852431E0,2.343102103E-1,3.942885070E0
6.444333417E0,3.145978022E0,-2.587112260E0,1.941436395E-2,4.073168850E0
6.454315417E0,3.194751987E0,-2.564704268E0,-1.803299580E-1,4.100812984E0
6.464297417E0,3.197564498E0,-2.520327994E0,-3.661625844E-1,4.087853587E0
6.474278417E0,3.184101284E0,-2.515811897E0,-5.141059843E-1,4.090490857E0
6.484260417E0,3.108451177E0,-2.610341201E0,-6.505396519E-1,4.110906438E0
6.494242417E0,3.091646864E0,-2.732989181E0,-6.343170637E-1,4.174909380E0
6.504224417E0,2.970516529E0,-2.917246933E0,-5.437600654E-1,4.198806155E0
6.514206417E0,2.787149600E0,-3.082863176E0,-5.128950260E-1,4.187518307E0
6.524187417E0,2.646966113E0,-3.159408199E0,-5.692814807E-1,4.160813764E0
6.534169417E0,2.582002963E0,-3.072982551E0,-7.041013898E-1,4.075011635E0
6.544151417E0,2.384753575E0,-2.958693751E0,-8.606382964E-1,3.896359404E0
6.554133417E0,2.105313969E0,-2.777475674E0,-1.023351690E0,3.632350026E0
6.564115417E0,1.891778916E0,-2.464937612E0,-1.082742444E0,3.290452264E0
6.574096417E0,1.704886701E0,-2.174862506E0,-1.048539668E0,2.955689601E0
6.584078417E0,1.413322894E0,-1.964170077E0,-9.162481678E-1,2.587461381E0
6.594060417E0,1.126509950E0,-1.807720513E0,-6.894335032E-1,2.238793576E0
6.604042417E0,8.743592995E-1,-1.729151623E0,-3.966301228E-1,1.977823292E0
6.614024417E0,6.280061638E-1,-1.750776965E0,-1.165058815E-1,1.863648396E0
6.624005417E0,3.554189104E-1,-1.863176530E0,1.583829457E-1,1.903374514E0
6.633987417E0,1.229570049E-1,-1.940969933E0,4.403438340E-1,1.994087611E0
6.643969417E0,-1.404150367E-2,-1.943689181E0,6.217310051E-1,2.040753351E0
6.653951417E0,-8.968985617E-2,-1.901014155E0,7.076732346E-1,2.030443423E0
6.663933417E0,-1.439713132E-1,-1.785221743E0,7.163031401E-1,1.928946500E0
6.673915417E0,-2.564267188E-1,-1.629289804E0,6.545332271E-1,1.774472787E0
6.683896417E0,-5.413188529E-1,-1.541961931E0,4.673229235E-1,1.699724510E0
6.693878292E0,-1.032587294E0,-1.673078725E0,2.332699907E-1,1.979859548E0
6.703860292E0,-1.672401325E0,-1.989207708E0,5.448669434E-2,2.599392679E0
6.713842292E0,-2.319247218E0,-2.416494600E0,-6.101496443E-3,3.349386666E0
6.723824292E0,-2.799705327E0,-2.773520325E0,2.192161713E-1,3.947001475E0
6.733805292E0,-3.264036230E0,-2.934615794E0,7.323316008E-1,4.449967634E0
6.743787292E0,-3.461229485E0,-2.660329048E0,1.179079927E0,4.521912169E0
6.753769292E0,-3.503838145E0,-2.379639892E0,1.327228491E0,4.438592483E0
6.763751292E0,-3.668306288E0,-2.184768274E0,1.398086219E0,4.492697243E0
6.773733292E0,-3.447382109E0,-1.588760414E0,1.597017851E0,4.118139030E0
6.783714292E0,-3.011841726E0,-8.271804553E-1,1.873657810E0,3.642253653E0
6.793696292E0,-2.570168783E0,-5.571110129E-2,1.962561216E0,3.234272380E0
6.803678292E0,-2.108923455E0,6.548682725E-1,1.823653591E0,2.863934883E0
6.813660292E0,-1.562385963E0,1.247502875E0,1.581870639E0,2.549436808E0
6.823642292E0,-9.400416577E-1,1.772117694E0,1.330642095E0,2.407215783E0
6.833623292E0,-3.126652390E-1,2.283090083E0,1.039343240E0,2.527942691E0
6.843605292E0,2.162411445E-1,2.727090217E0,7.146197999E-1,2.827448097E0
6.853587292E0,7.177147311E-1,3.098509448E0,3.310295892E-1,3.197726665E0
6.863569292E0,1.040474018E0,3.323665258E0,-6.634901382E-2,3.483351708E0
6.873551292E0,1.033236920E0,3.362189931E0,-5.034278722E-1,3.553215345E0
6.883532292E0,8.628092945E-1,3.333414905E0,-9.579195195E-1,3.574031983E0
6.893514292E0,6.028333157E-1,3.230846557E0,-1.306820539E0,3.536885268E0
6.903496292E0,3.823675579E-1,2.942573855E0,-1.587496246E0,3.365277131E0
6.913478292E0,3.676261425E-2,2.521720216E0,-1.796419015E0,3.096376207E0
6.923460292E0,-3.169997799E-1,2.120070587E0,-1.879400361E0,2.850847921E0
6.933441292E0,-6.311671686E-1,1.706552865E0,-1.810188038E0,2.566607763E0
6.943423292E0,-1.100200987E0,1.215672387E0,-1.443160651E0,2.184265146E0
6.953405292E0,-1.544762455E0,8.351469943E-1,-9.231496364E-1,1.983927114E0
6.963387292E0,-1.940510196E0,5.812439337E-1,-3.849192828E-1,2.061937726E0
6.973369292E0,-2.233773204E0,3.852271387E-1,3.333205283E-2,2.266992215E0
6.983350292E0,-2.298606547E0,2.193012848E-1,2.721533900E-1,2.325027436E0
6.993332292E0,-2.106812611E0,1.368684080E-1,6.022006835E-1,2.195458494E0
7.003314292E0,-1.643547070E0,1.507137376E-1,1.045139512E0,1.953529678E0
7.013296292E0,-9.128830951E-1,2.850412381E-1,1.428527994E0,1.719097519E0
7.023278292E0,-1.808152038E-1,5.298463234E-1,1.713267515E0,1.802419719E0
7.033259292E0,5.185778618E-1,6.932874030E-1,1.714949759E0,1.921099450E0
7.043241292E0,1.155615050E0,7.423119208E-1,1.517274694E0,2.046605880E0
7.053223292E0,1.569021968E0,8.538256323E-1,1.313230841E0,2.217075413E0
7.063205292E0,1.610012704E0,9.327662596E-1,1.142407871E0,2.183412362E0
7.073187292E0,1.413345113E0,1.001765451E0,9.863556256E-1,1.993483345E0
7.083168292E0,1.140143902E0,1.121439829E0,7.277345198E-1,1.757029578E0
7.093150292E0,9.075802553E-1,1.194929974E0,4.210860658E-1,1.558484211E0
7.103132292E0,8.711445004E-1,1.319951631E0,1.087272209E-1,1.585240252E0
7.113114292E0,1.065014783E0,1.468911788E0,-4.717212722E-1,1.874694452E0
7.123096292E0,1.272776880E0,1.470400782E0,-1.192349598E0,2.281170096E0
7.133077292E0,1.507057269E0,1.439209687E0,-1.719586017E0,2.701762796E0
7.143059292E0,1.730332614E0,1.318067073E0,-2.210807095E0,3.101454462E0
7.153041292E0,1.703928342E0,1.254801077E0,-2.421879301E0,3.216115186E0
7.163023292E0,1.570255730E0,1.410138500E0,-2.458724946E0,3.240296592E0
7.173005292E0,1.364924321E0,1.643939126E0,-2.457208763E0,3.256290705E0
7.182986292E0,1.096530105E0,1.777762012E0,-2.273915509E0,3.087637897E0
7.192968292E0,8.095557779E-1,1.890907973E0,-1.966057705E0,2.845399167E0
7.202950292E0,4.482434589E-1,1.927622348E0,-1.548653046E0,2.512961673E0
7.212932292E0,1.744972873E-1,1.980420659E0,-1.118604075E0,2.281181792E0
7.222914292E0,2.263047874E-2,1.987548122E0,-8.846720338E-1,2.175661804E0
7.232895292E0,3.122471631E-2,1.893552961E0,-7.494383611E-1,2.036707062E0
7.242877292E0,7.311066091E-2,1.850207259E0,-6.283090496E-1,1.955347625E0
7.252859292E0,9.654980958E-2,1.866643783E0,-6.362511764E-1,1.974461050E0
7.262841292E0,1.689354157E-1,1.940287417E0,-6.430598205E-1,2.051043727E0
7.272823292E0,1.840826279E-1,2.062673734E0,-6.262864977E-1,2.163502744E0
7.282804292E0,8.572895229E-2,2.159073855E0,-6.508863187E-1,2.256679499E0
7.292786292E0,-7.966246605E-2,2.239230703E0,-6.917468078E-1,2.344997632E0
7.302768292E0,-3.186177045E-1,2.265525339E0,-6.974114442E-1,2.391757727E0
7.312750292E0,-6.839809746E-1,2.194798003E0,-7.814860730E-1,2.428103938E0
7.322732292E0,-9.376460534E-1,2.179519521E0,-9.100121854E-1,2.541182332E0
7.332713292E0,-1.096192721E0,2.178456790E0,-1.049300464E0,2.654871735E0
7.342695292E0,-1.345803341E0,2.012625953E0,-1.143826479E0,2.677720836E0
7.352677292E0,-1.636101810E0,1.735536636E0,-1.090729521E0,2.622709942E0
7.362659292E0,-1.876679066E0,1.462043649E0,-9.489054519E-1,2.561233591E0
7.372641292E0,-2.199497411E0,1.079329936E0,-6.778910995E-1,2.542101161E0
7.382622292E0,-2.408178690E0,8.229160810E-1,-4.405352207E-1,2.582747909E0
7.392604292E0,-2.599755694E0,6.355034637E-1,-3.445935215E-1,2.698395638E0
7.402586292E0,-2.889039087E0,3.463069019E-1,-1.918623483E-1,2.916039519E0
7.412568292E0,-3.305405281E0,-1.342228353E-3,9.983119391E-2,3.306912780E0
7.422550292E0,-3.624965556E0,-1.973233554E-1,4.471569731E-1,3.657767236E0
7.432531292E0,-3.748845837E0,-2.787364778E-1,6.917090202E-1,3.822303036E0
7.442513292E0,-3.774494063E0,-2.919020686E-1,7.285648245E-1,3.855232672E0
7.452495292E0,-3.725038313E0,-1.943424448E-1,6.697330642E-1,3.789752208E0
7.462477292E0,-3.535014330E0,1.034328595E-1,5.883402608E-1,3.585131647E0
7.472459292E0,-3.148434438E0,5.609526336E-1,4.505132749E-1,3.229592772E0
7.482440292E0,-2.664480863E0,1.027574184E0,2.793571597E-1,2.869391468E0
7.492422292E0,-2.162237783E0,1.395526308E0,4.840909839E-2,2.573928777E0
7.502404292E0,-1.643163493E0,1.637255466E0,-2.504900408E-1,2.333096009E0
7.512386292E0,-1.118246080E0,1.796676877E0,-5.708280692E-1,2.191886580E0
7.522368292E0,-6.169063944E-1,1.871575909E0,-8.209714432E-1,2.134798349E0
7.532349292E0,-2.930115777E-1,1.751648346E0,-9.678195135E-1,2.022573194E0
7.542331292E0,-2.525412440E-3,1.500479444E0,-1.113804023E0,1.868690542E0
7.552313292E0,2.019973272E-1,1.163949964E0,-1.201354968E0,1.684884624E0
7.562295292E0,3.305045092E-1,8.295158333E-1,-1.138321471E0,1.446756897E0
7.572277292E0,3.453593606E-1,5.119798636E-1,-1.012461178E0,1.185948610E0
7.582258292E0,2.653437227E-1,1.978230000E-1,-8.629659998E-1,9.242572950E-1
7.592240292E0,1.464727521E-1,-1.252584690E-1,-7.182766485E-1,7.436835987E-1
7.602222292E0,5.929544449E-2,-3.748372212E-1,-5.164715485E-1,6.409069765E-1
7.612204292E0,-2.386073291E-2,-5.244244927E-1,-2.828771836E-1,5.963303481E-1
7.622186292E0,-1.145159644E-1,-5.945859642E-1,-5.915861964E-2,6.083963488E-1
7.632167292E0,-8.825728834E-2,-5.748900568E-1,1.792615986E-1,6.086235677E-1
7.642149292E0,-4.456163049E-3,-5.822068240E-1,3.935497731E-1,7.027560510E-1
7.652131292E0,5.838912606E-2,-5.977149555E-1,5.687217560E-1,8.271135918E-1
7.662113292E0,9.023364723E-2,-6.504935320E-1,7.875263929E-1,1.025417849E0
7.672095292E0,1.640822268E-1,-7.096163374E-1,1.000071512E0,1.237182829E0
7.682076292E0,3.258021784E-1,-8.323400384E-1,1.192747720E0,1.490497945E0
7.692058125E0,4.873923218E-1,-1.008290066E0,1.411544756E0,1.801848698E0
7.702040125E0,6.776478553E-1,-1.172511165E0,1.609948969E0,2.103788185E0
7.712022125E0,9.384313345E-1,-1.350757833E0,1.773007348E0,2.418419969E0
7.722004125E0,1.246747414E0,-1.563169197E0,1.922354007E0,2.773683829E0
7.731985125E0,1.446053853E0,-1.770221442E0,2.072131020E0,3.085203829E0
7.741967125E0,1.645257381E0,-1.884292872E0,2.179157286E0,3.317553007E0
7.751949125E0,1.826041594E0,-1.929909340E0,2.213558795E0,3.458152759E0
7.761931125E0,1.960138714E0,-1.978530839E0,2.213014419E0,3.557268739E0
7.771913125E0,2.055480489E0,-2.010291160E0,2.164867276E0,3.599016659E0
7.781894125E0,2.039372579E0,-2.040479311E0,2.109582437E0,3.573924229E0
7.791876125E0,2.013426145E0,-2.018830288E0,2.028746434E0,3.499338890E0
7.801858125E0,1.998163742E0,-2.019101891E0,1.903576258E0,3.419507766E0
7.811840125E0,1.937149801E0,-2.080730667E0,1.751597183E0,3.339173873E0
7.821822125E0,1.952304030E0,-2.111918692E0,1.590795829E0,3.286688753E0
7.831803125E0,2.040032145E0,-2.134089579E0,1.435545237E0,3.282812760E0
7.841785125E0,2.032859366E0,-2.238291055E0,1.254501407E0,3.273566531E0
7.851767125E0,1.983224691E0,-2.353257548E0,1.034677089E0,3.246776546E0
7.861749125E0,1.931066358E0,-2.360207694E0,8.338544673E-1,3.161472902E0
7.871731125E0,1.885015442E0,-2.300803638E0,7.171364415E-1,3.059618485E0
7.881712125E0,1.726240148E0,-2.288925604E0,6.405524614E-1,2.937582837E0
7.891694125E0,1.617026439E0,-2.278075218E0,5.322562168E-1,2.843887811E0
7.901676125E0,1.605744821E0,-2.216276581E0,4.073982821E-1,2.766996869E0
7.911658125E0,1.593536419E0,-2.175869105E0,4.232307514E-1,2.729997976E0
7.921640125E0,1.503397497E0,-2.177818712E0,5.735527986E-1,2.707777906E0
7.931621125E0,1.486706620E0,-2.152619260E0,6.248743220E-1,2.689708937E0
7.941603125E0,1.511270773E0,-2.099840098E0,5.795203938E-1,2.651247192E0
7.951585125E0,1.427380185E0,-2.112507945E0,5.472450060E-1,2.607600642E0
7.961567125E0,1.063155953E0,-2.154817666E0,5.777657175E-1,2.471305926E0
7.971549125E0,6.116444850E-1,-2.090134159E0,5.658959428E-1,2.250112885E0
7.981530125E0,2.937664533E-1,-1.953498909E0,4.504238856E-1,2.026163466E0
7.991512125E0,-5.976906896E-2,-1.877444467E0,3.685944414E-1,1.914218360E0
8.001494125E0,-4.456496340E-1,-1.729185975E0,4.034093481E-1,1.830690262E0
8.011476125E0,-6.596910560E-1,-1.590124569E0,3.017150120E-1,1.747775839E0
8.021458125E0,-8.686448157E-1,-1.615195529E0,-1.346387185E-2,1.834007004E0
8.031439125E0,-1.338595478E0,-1.996082572E0,-3.099948156E-1,2.423278827E0
8.041421125E0,-1.729496462E0,-2.404143088E0,-3.843639435E-1,2.986435608E0
8.051403125E0,-1.890798923E0,-2.500402730E0,-2.684468400E-1,3.146299109E0
8.061385125E0,-2.084785565E0,-2.311574209E0,5.366165221E-2,3.113291786E0
8.071367125E0,-2.370868776E0,-2.029779784E0,3.997520609E-1,3.146557871E0
8.081348125E0,-2.496192734E0,-1.666799400E0,5.299103504E-1,3.047950686E0
8.091330125E0,-2.560450126E0,-1.237383976E0,6.079700947E-1,2.908032253E0
8.101312125E0,-2.347533708E0,-5.633380052E-1,6.514049667E-1,2.500518476E0
8.111294125E0,-1.870812555E0,1.789385399E-1,5.995846027E-1,1.972678462E0
8.121276125E0,-1.331737279E0,7.796013692E-1,4.611844435E-1,1.610587956E0
8.131257125E0,-8.419148540E-1,1.423059385E0,3.331294705E-1,1.686681321E0
8.141239125E0,-3.774588203E-1,2.020129393E0,1.983124119E-1,2.064636950E0
8.151221125E0,2.042549372E-2,2.589434189E0,2.128956601E-2,2.589602260E0
8.161203125E0,2.842945486E-1,3.054170597E0,-1.905209970E-1,3.073284835E0
8.171185125E0,4.193459344E-1,3.426567775E0,-5.379555345E-1,3.493796486E0
8.181166125E0,4.206375843E-1,3.625499115E0,-9.321596110E-1,3.766975093E0
8.191148125E0,3.162589377E-1,3.680413240E0,-1.253571115E0,3.900884756E0
8.201130125E0,1.333416599E-1,3.568092906E0,-1.559156545E0,3.896156582E0
8.211112125E0,-6.461991906E-2,3.353755322E0,-1.840480855E0,3.826123400E0
8.221094125E0,-3.539448273E-1,3.196358509E0,-1.962956488E0,3.767649510E0
8.231075125E0,-7.298751855E-1,3.011569245E0,-1.962316217E0,3.667826610E0
8.241057125E0,-1.253227299E0,2.679578666E0,-1.815309468E0,3.470744727E0
8.251039125E0,-1.724794132E0,2.385148262E0,-1.526308496E0,3.315639403E0
8.261021125E0,-2.154107814E0,2.243302996E0,-1.167633490E0,3.322041056E0
8.271003125E0,-2.590118898E0,2.084733817E0,-8.102242608E-1,3.422176843E0
8.280984125E0,-2.912907422E0,2.043785181E0,-5.474229075E-1,3.600244346E0
8.290966125E0,-2.995085945E0,2.109562264E0,-2.954505245E-1,3.675334512E0
8.300948125E0,-2.901445125E0,2.187413555E0,1.023262739E-4,3.633615539E0
8.310930125E0,-2.642207065E0,2.149596688E0,3.435261854E-1,3.423453568E0
8.320912125E0,-2.175836068E0,2.134293939E0,7.744625437E-1,3.144720249E0
8.330893125E0,-1.545377582E0,2.076892116E0,1.221622514E0,2.862522366E0
8.340875125E0,-9.833344424E-1,1.886994724E0,1.678992891E0,2.710482032E0
8.350857125E0,-5.088708991E-1,1.642918494E0,2.026586473E0,2.658041291E0
8.360839125E0,-3.177552402E-2,1.438324711E0,2.264512017E0,2.682872031E0
8.370821125E0,3.718741447E-1,1.249361120E0,2.356494566E0,2.693002085E0
8.380802125E0,5.675307512E-1,1.073778297E0,2.383774751E0,2.675345407E0
8.390784125E0,7.043748933E-1,9.884507561E-1,2.253577724E0,2.559646742E0
8.400766125E0,8.626976126E-1,9.958100617E-1,1.852196190E0,2.272997047E0
8.410748125E0,1.006487077E0,8.842755926E-1,1.376225819E0,1.920665787E0
8.420730125E0,1.248284647E0,8.588682711E-1,9.148325568E-1,1.769968326E0
8.430711125E0,1.343497199E0,7.970997468E-1,5.640743890E-1,1.660883092E0
8.440693125E0,1.406796817E0,7.163073063E-1,2.949481390E-1,1.605978781E0
8.450675125E0,1.381595902E0,5.806138963E-1,1.269717032E-1,1.504008493E0
8.460657125E0,1.239792151E0,3.983485830E-1,8.326135419E-2,1.304874946E0
8.470639125E0,1.172242777E0,3.055158484E-1,1.120226385E-1,1.216569823E0
8.480620125E0,1.046070973E0,2.628010610E-1,1.563100346E-1,1.089844808E0
8.490602125E0,9.037035513E-1,3.188919389E-1,2.602343526E-1,9.930227065E-1
8.500584125E0,8.649885517E-1,4.598443347E-1,3.162413961E-1,1.029403044E0
8.510566125E0,8.483491302E-1,5.377657923E-1,3.049270338E-1,1.049699381E0
8.520548125E0,8.279271448E-1,5.853355229E-1,2.870327997E-1,1.053787863E0
8.530529125E0,7.513186795E-1,6.945948404E-1,2.893454466E-1,1.063326167E0
8.540511125E0,6.206345791E-1,7.446525612E-1,2.306592820E-1,9.964428845E-1
8.550493125E0,5.050398034E-1,7.895585927E-1,1.428873856E-1,9.480953430E-1
8.560475125E0,4.087595505E-1,7.461114416E-1,-5.916329741E-2,8.527994776E-1
8.570457125E0,2.692221808E-1,6.375385872E-1,-2.866743654E-1,7.490782499E-1
8.580438125E0,1.637354869E-1,5.589376831E-1,-4.252498680E-1,7.211505346E-1
8.590420125E0,-1.192849535E-1,4.111457992E-1,-6.121216909E-1,7.469690306E-1
8.600402125E0,-3.855724168E-1,3.352658969E-1,-8.141891847E-1,9.612353191E-1
8.610384125E0,-4.491146940E-1,3.197734067E-1,-1.062450778E0,1.196979823E0
8.620366125E0,-6.171724427E-1,2.623666129E-1,-1.288340998E0,1.452432646E0
8.630347125E0,-7.719915104E-1,2.659363380E-1,-1.364313140E0,1.589982193E0
8.640329125E0,-9.169451559E-1,3.097100562E-1,-1.405601061E0,1.706582281E0
8.650311125E0,-1.029839103E0,3.245757249E-1,-1.437558287E0,1.797913181E0
8.660293125E0,-1.182356122E0,3.009825021E-1,-1.409710046E0,1.864360179E0
8.670275125E0,-1.488198829E0,7.653303623E-2,-1.335758409E0,2.001210531E0
8.680256125E0,-1.849035770E0,-2.867796153E-1,-1.157691396E0,2.200323884E0
8.690238125E0,-2.119735542E0,-6.359762111E-1,-9.375391225E-1,2.403481665E0
8.700220000E0,-2.365309244E0,-8.926754102E-1,-7.778656232E-1,2.645114768E0
8.710202000E0,-2.521041647E0,-1.000542213E0,-6.125619131E-1,2.780641617E0
8.720184000E0,-2.602336655E0,-9.909138957E-1,-4.449485528E-1,2.819937168E0
8.730165000E0,-2.591318162E0,-1.006897552E0,-4.306398314E-1,2.813222914E0
8.740147000E0,-2.311714835E0,-9.630220923E-1,-2.965421265E-1,2.521779978E0
8.750129000E0,-1.969119453E0,-7.687167773E-1,-3.742459215E-2,2.114180102E0
8.760111000E0,-1.649735763E0,-5.033660379E-1,1.399273789E-1,1.730486963E0
8.770093000E0,-1.332617869E0,-2.768843722E-1,1.590827112E-1,1.370343990E0
8.780074000E0,-9.653688723E-1,-5.502726942E-2,1.291448940E-1,9.755221492E-1
8.790056000E0,-5.917908490E-1,1.812291867E-1,1.180693173E-1,6.300799876E-1
8.800038000E0,-2.781561416E-1,4.162524650E-1,7.153359376E-2,5.057212757E-1
8.810020000E0,-2.126924694E-2,6.391035944E-1,-1.846375287E-2,6.397239213E-1
8.820002000E0,2.871590996E-1,8.623824477E-1,-1.930000703E-1,9.292001193E-1
8.829983000E0,6.386650532E-1,1.020288845E0,-4.742167908E-1,1.293740292E0
8.839965000E0,9.730456817E-1,1.105307653E0,-8.648137200E-1,1.707754572E0
8.849947000E0,1.281683359E0,1.097818832E0,-1.286637704E0,2.122110978E0
8.859929000E0,1.433549582E0,8.907660019E-1,-1.638461016E0,2.352250619E0
8.869911000E0,1.351604948E0,5.535582447E-1,-1.827381776E0,2.339356070E0
8.879892000E0,1.041234741E0,1.688871762E-1,-1.959671668E0,2.225534927E0
8.889874000E0,6.682735991E-1,-2.204217575E-1,-2.027448353E0,2.146094634E0
8.899856000E0,2.546550125E-1,-6.006661914E-1,-1.870979785E0,1.981467740E0
8.909838000E0,-1.138774484E-1,-9.486098751E-1,-1.570910618E0,1.838637794E0
8.919819000E0,-5.704958743E-1,-1.339553983E0,-1.221052556E0,1.900220977E0
8.929801000E0,-1.078563366E0,-1.682962127E0,-8.027811939E-1,2.154093336E0
8.939783000E0,-1.366742220E0,-1.778971947E0,-2.698852551E-1,2.259549409E0
8.949765000E0,-1.502328626E0,-1.732820166E0,1.832031336E-1,2.300699984E0
8.959747000E0,-1.533422365E0,-1.654789658E0,5.961101872E-1,2.333465302E0
8.969729000E0,-1.458855162E0,-1.527930075E0,1.081267703E0,2.373176889E0
8.979710000E0,-1.424955345E0,-1.302911821E0,1.535813876E0,2.467144343E0
8.989692000E0,-1.248464157E0,-1.094459022E0,1.858880142E0,2.492376112E0
8.999674000E0,-9.047513723E-1,-9.771822944E-1,2.022453661E0,2.421524126E0
9.009656000E0,-4.332237160E-1,-9.308742468E-1,2.089815339E0,2.328419594E0
9.019637000E0,1.217653424E-1,-9.588919115E-1,2.116522497E0,2.326793497E0
9.029619000E0,5.929953754E-1,-1.085953369E0,2.072911624E0,2.414104562E0
9.039601000E0,9.468881625E-1,-1.268298351E0,1.990146040E0,2.542805372E0
9.049583000E0,1.256937357E0,-1.338502361E0,1.874574069E0,2.624025158E0
9.059565000E0,1.500185621E0,-1.386091972E0,1.715428061E0,2.667302249E0
9.069547000E0,1.651793983E0,-1.410954625E0,1.584911191E0,2.689081591E0
9.079528000E0,1.711640235E0,-1.507016485E0,1.509244128E0,2.734708178E0
9.089510000E0,1.680834180E0,-1.667701918E0,1.506787128E0,2.806570982E0
9.099492000E0,1.676214879E0,-1.733417020E0,1.494293382E0,2.836784024E0
9.109474000E0,1.621409512E0,-1.811671038E0,1.483734480E0,2.848260656E0
9.119455000E0,1.518168148E0,-1.960305652E0,1.437808110E0,2.866169035E0
9.129437000E0,1.467603182E0,-2.081925691E0,1.276402153E0,2.849118485E0
9.139419000E0,1.476696771E0,-2.154142167E0,1.033150966E0,2.808622927E0
9.149401000E0,1.590203506E0,-2.194744501E0,7.015746617E-1,2.799617407E0
9.159383000E0,1.787022539E0,-2.277341246E0,3.085862213E-1,2.911178140E0
9.169364000E0,1.988602375E0,-2.371109536E0,-2.392680645E-3,3.094625270E0
9.179346000E0,2.162509679E0,-2.435165052E0,-2.058102965E-1,3.263255249E0
9.189328000E0,2.301081088E0,-2.446547827E0,-3.088487979E-1,3.372826415E0
9.199310000E0,2.378878877E0,-2.441239140E0,-3.106562088E-1,3.422750433E0
9.209292000E0,2.374990479E0,-2.405557091E0,-2.294406857E-1,3.388204203E0
9.219273000E0,2.336100647E0,-2.363257017E0,-1.355536981E-1,3.325766794E0
9.229255000E0,2.236358843E0,-2.375404608E0,4.301675957E-2,3.262774642E0
9.239237000E0,2.116481566E0,-2.451223114E0,2.058114294E-1,3.245049664E0
9.249219000E0,1.907210303E0,-2.529089754E0,3.141381161E-1,3.183147637E0
9.259201000E0,1.735927230E0,-2.574723179E0,4.230349062E-1,3.133943415E0
9.269182000E0,1.606630089E0,-2.615761278E0,4.945990151E-1,3.109356122E0
9.279164000E0,1.433355455E0,-2.657997763E0,5.520665834E-1,3.069892096E0
9.289146000E0,1.196378914E0,-2.654167544E0,6.323629242E-1,2.979229888E0
9.299128000E0,9.720218343E-1,-2.606575010E0,7.378081030E-1,2.878093210E0
9.309110000E0,7.553953582E-1,-2.506721231E0,8.244919056E-1,2.744824289E0
9.319091000E0,4.895897055E-1,-2.316392169E0,8.734360973E-1,2.523541435E0
9.329073000E0,3.256624299E-1,-2.075069977E0,9.080707636E-1,2.288353981E0
9.339055000E0,1.762274784E-1,-1.846442676E0,8.256432223E-1,2.030293922E0
9.349037000E0,-1.869179428E-2,-1.774243157E0,6.619661345E-1,1.893802346E0
9.359019000E0,-2.845746303E-1,-1.863094815E0,4.941264870E-1,1.948400882E0
9.369000000E0,-8.516381890E-1,-2.139260272E0,3.611632881E-1,2.330699688E0
9.378982000E0,-1.460995243E0,-2.243168803E0,3.561715201E-1,2.700587256E0
9.388964000E0,-1.500936989E0,-2.076962575E0,4.234325534E-1,2.597283294E0
9.398946000E0,-1.320128801E0,-1.765615444E0,4.526838344E-1,2.250568951E0
9.408928000E0,-1.316312909E0,-1.625763348E0,2.928355034E-1,2.112235491E0
9.418909000E0,-1.407724770E0,-1.525832532E0,-2.155758776E-2,2.076130698E0
9.428891000E0,-1.610385171E0,-1.394331284E0,-2.735579643E-1,2.147634533E0
9.438873000E0,-1.820614793E0,-1.237920312E0,-3.406020659E-1,2.227800415E0
9.448855000E0,-1.982713645E0,-9.240685263E-1,-3.832476369E-1,2.220795981E0
9.458837000E0,-2.124750114E0,-5.197321022E-1,-4.362485538E-1,2.230470198E0
9.468818000E0,-2.118231053E0,-4.424237251E-2,-4.232226384E-1,2.160550297E0
9.478800000E0,-1.914718713E0,5.447499990E-1,-3.677460104E-1,2.024385694E0
9.488782000E0,-1.487836302E0,1.135369943E0,-4.602038654E-1,1.927306246E0
9.498764000E0,-1.003688600E0,1.601818123E0,-5.540950922E-1,1.969830824E0
9.508746000E0,-5.749070138E-1,1.969322936E0,-6.800786890E-1,2.161309308E0
9.518727000E0,-1.487993592E-1,2.288243819E0,-8.567879780E-1,2.447914758E0
9.528709000E0,2.189583457E-1,2.476846929E0,-9.687930018E-1,2.668571406E0
9.538691000E0,4.609839571E-1,2.570473423E0,-1.096404390E0,2.832303376E0
9.548673000E0,5.876071662E-1,2.585260154E0,-1.302404575E0,2.953829705E0
9.558655000E0,5.692030549E-1,2.479130851E0,-1.535871617E0,2.971360550E0
9.568636000E0,4.557986462E-1,2.284119485E0,-1.710620481E0,2.889840248E0
9.578618000E0,2.218135411E-1,2.025904688E0,-1.812738594E0,2.727546931E0
9.588600000E0,-1.135511738E-1,1.748795198E0,-1.868676713E0,2.561860880E0
9.598582000E0,-5.522221559E-1,1.505475305E0,-1.840350316E0,2.440961796E0
9.608564000E0,-1.029871847E0,1.240930604E0,-1.678275438E0,2.327477869E0
9.618545000E0,-1.592112622E0,9.372908351E-1,-1.380486685E0,2.306313118E0
9.628527000E0,-2.098705446E0,6.659844142E-1,-1.031345418E0,2.431413820E0
9.638509000E0,-2.422324274E0,4.328553414E-1,-7.306078416E-1,2.566867050E0
9.648491000E0,-2.493226442E0,2.893228617E-1,-4.047915568E-1,2.542389036E0
9.658472000E0,-2.386544577E0,1.932317662E-1,1.055176842E-1,2.396678434E0
9.668454000E0,-2.087187016E0,1.697733217E-1,6.830828422E-1,2.202674463E0
9.678436000E0,-1.683480045E0,1.815607238E-1,1.239953535E0,2.098702963E0
9.688418000E0,-1.104396365E0,1.897883409E-1,1.658444606E0,2.001536774E0
9.698400375E0,-4.827765298E-1,2.251385602E-1,1.967502698E0,2.038339377E0
9.708381375E0,-1.155760646E-2,1.303891084E-1,2.113214727E0,2.117265071E0
9.718363375E0,5.206284803E-1,5.852244258E-2,2.073198137E0,2.138370737E0
9.728345375E0,1.019983036E0,4.062908560E-2,1.879150100E0,2.138509110E0
9.738327375E0,1.436583118E0,2.813563228E-2,1.515372595E0,2.088280817E0
9.748309375E0,1.712734834E0,-2.631334752E-2,1.107251560E0,2.039646788E0
9.758290375E0,1.746604831E0,-1.085634989E-1,7.656741786E-1,1.910149579E0
9.768272375E0,1.388292133E0,-1.453117874E-1,5.610976446E-1,1.504427177E0
9.778254375E0,9.153652382E-1,2.226239651E-2,3.414252808E-1,9.772207304E-1
9.788236375E0,8.484374231E-1,2.924321187E-1,-3.055586793E-2,8.979400125E-1
9.798218375E0,8.371920580E-1,3.784136707E-1,-6.072590733E-1,1.101295160E0
9.808199375E0,8.241644615E-1,3.542784110E-1,-1.307936772E0,1.586019814E0
9.818181375E0,1.164467150E0,3.580719383E-1,-1.840553799E0,2.207223945E0
9.828163375E0,1.652463489E0,2.514182863E-1,-2.225294157E0,2.783124291E0
9.838145375E0,1.993653200E0,4.428637281E-2,-2.460385555E0,3.167035119E0
9.848127375E0,2.257386015E0,-1.162511256E-1,-2.571839917E0,3.423984011E0
9.858108375E0,2.339166927E0,-2.024950714E-1,-2.363241230E0,3.331308343E0
9.868090375E0,2.355006450E0,-3.000209275E-1,-1.812122297E0,2.986612656E0
9.878072375E0,3.071202659E0,-8.769751976E-1,-1.587884501E0,3.566896194E0
9.888054375E0,2.797454733E0,-1.121176412E0,-1.395747918E0,3.321280142E0
9.898036375E0,1.933434480E0,-7.451573221E-1,-1.032067988E0,2.314863421E0
9.908017375E0,8.454325390E-1,-2.385582125E-1,-9.096736316E-1,1.264583850E0
9.917999375E0,2.196003699E-1,1.105511136E-1,-7.764921123E-1,8.144850346E-1
9.927981375E0,-1.849076700E-1,3.466280602E-1,-6.369331811E-1,7.483486725E-1
9.937963375E0,-5.170067149E-1,5.976142372E-1,-4.684572103E-1,9.186353344E-1
9.947945375E0,-7.897611988E-1,1.003438924E0,-4.781741863E-1,1.363547937E0
9.957926375E0,-7.733194131E-1,1.164416425E0,-6.861771888E-1,1.557153705E0
9.967908375E0,-3.772874969E-1,1.024714749E0,-8.090301863E-1,1.359012882E0
9.977890375E0,-3.460586876E-1,1.300409798E0,-9.893623370E-1,1.670227557E0
9.987872375E0,-5.092217320E-1,1.699475688E0,-1.111172191E0,2.093377182E0
9.997854375E0,-8.331545556E-1,1.920704507E0,-1.356711321E0,2.494778132E0
1.000783537E1,-1.152407268E0,2.031130344E0,-1.664280712E0,2.867640716E0
1.001781737E1,-1.359132653E0,1.992646017E0,-1.821883639E0,3.022770205E0
1.002779937E1,-1.679812671E0,1.585792367E0,-2.120249951E0,3.135596896E0
1.003778137E1,-2.183034575E0,1.053135433E0,-2.331318648E0,3.363001760E0
1.004776237E1,-2.601979390E0,6.361047037E-1,-2.406611052E0,3.600930810E0
1.005774437E1,-3.094730101E0,3.475798407E-1,-2.411406938E0,3.938660884E0
1.006772637E1,-3.593361356E0,2.194999440E-1,-2.405008914E0,4.329491187E0
1.007770837E1,-4.055662690E0,1.734858651E-1,-2.272482941E0,4.652168948E0
1.008769037E1,-4.190589530E0,3.491816854E-1,-1.921084576E0,4.623152000E0
1.009767137E1,-4.026541218E0,6.769502825E-1,-1.545641291E0,4.365810676E0
1.010765337E1,-3.545118318E0,9.296950096E-1,-1.277490320E0,3.881259875E0
1.011763537E1,-2.909866285E0,1.006813791E0,-9.808382660E-1,3.231569202E0
1.012761737E1,-2.259417922E0,9.409156702E-1,-6.095120785E-1,2.522260221E0
1.013759937E1,-1.618785281E0,8.313974673E-1,-2.926999942E-1,1.843193105E0
1.014758037E1,-1.072690423E0,7.435016830E-1,1.241773188E-2,1.305225534E0
1.015756237E1,-5.257155579E-1,6.602557509E-1,2.614873378E-1,8.835667107E-1
1.016754437E1,-3.029442430E-2,6.035035528E-1,4.018352046E-1,7.256761137E-1
1.017752637E1,4.267771608E-1,5.797844687E-1,3.496751174E-1,8.003508373E-1
1.018750837E1,7.271106219E-1,4.993482699E-1,1.500961985E-1,8.947443322E-1
1.019748937E1,8.875389236E-1,5.031590465E-1,-1.481842321E-1,1.030947590E0
1.020747137E1,1.101268104E0,5.487483251E-1,-5.472128463E-1,1.346609840E0
1.021745337E1,1.174511497E0,4.096445265E-1,-1.000606971E0,1.596402269E0
1.022743537E1,1.137771687E0,1.603777233E-1,-1.399622283E0,1.810852827E0
1.023741737E1,9.413999659E-1,-6.427478716E-2,-1.616719460E0,1.871936686E0
1.024739837E1,7.477360904E-1,-3.032569959E-1,-1.773762224E0,1.948667876E0
1.025738037E1,5.206992316E-1,-6.706369706E-1,-1.938898703E0,2.116650613E0
1.026736237E1,1.591302198E-1,-1.120016470E0,-2.021505243E0,2.316515220E0
1.027734437E1,-1.721297497E-1,-1.527576903E0,-2.016655562E0,2.535748312E0
1.028732637E1,-5.491319025E-1,-1.920765903E0,-1.948453639E0,2.790584004E0
1.029730738E1,-8.486239493E-1,-2.275475838E0,-1.869823791E0,3.064994928E0
1.030728937E1,-1.037121810E0,-2.555878480E0,-1.625303757E0,3.201522881E0
1.031727137E1,-1.114209162E0,-2.815025616E0,-1.274588932E0,3.284875678E0
1.032725337E1,-1.184704363E0,-3.044736407E0,-9.103588521E-1,3.391562686E0
1.033723537E1,-1.154678911E0,-3.191975437E0,-5.178938106E-1,3.433686732E0
1.034721637E1,-1.042767296E0,-3.256718147E0,-1.922143872E-1,3.424985123E0
1.035719837E1,-9.090537536E-1,-3.272341030E0,1.341327882E-1,3.398909553E0
1.036718037E1,-7.381010485E-1,-3.250213120E0,4.420424867E-1,3.362154078E0
1.037716237E1,-5.195561010E-1,-3.247057085E0,7.041363269E-1,3.362904433E0
1.038714338E1,-2.305510354E-1,-3.214583988E0,9.333249611E-1,3.355264443E0
1.039712537E1,1.074525279E-1,-3.218506593E0,1.079860863E0,3.396532087E0
1.040710737E1,4.425237125E-1,-3.290674390E0,1.180851633E0,3.524028342E0
1.041708937E1,7.418075985E-1,-3.309874015E0,1.357700086E0,3.653613832E0
1.042707137E1,1.018235888E0,-3.363369606E0,1.446438600E0,3.800163688E0
1.043705237E1,1.260218815E0,-3.473002269E0,1.546931772E0,4.005358177E0
1.044703437E1,1.430757537E0,-3.581471335E0,1.633030853E0,4.188173088E0
1.045701638E1,1.594785385E0,-3.665777075E0,1.656886323E0,4.327416582E0
1.046699837E1,1.780436236E0,-3.701512041E0,1.670710895E0,4.434232682E0
1.047698037E1,1.988170851E0,-3.736109724E0,1.634832380E0,4.536961110E0
1.048696137E1,2.127726347E0,-3.771072273E0,1.537718314E0,4.594864863E0
1.049694337E1,2.165969476E0,-3.772824683E0,1.380557436E0,4.564161336E0
1.050692537E1,2.209204373E0,-3.696876953E0,1.158632213E0,4.459810733E0
1.051690737E1,2.249219209E0,-3.627160016E0,8.849877834E-1,4.358724608E0
1.052688938E1,2.326019463E0,-3.627472842E0,6.518037468E-1,4.358184701E0
1.053687037E1,2.390213705E0,-3.605494328E0,4.110797256E-1,4.345307520E0
1.054685238E1,2.521142803E0,-3.568643713E0,1.160964668E-1,4.370910360E0
1.055683437E1,2.601263691E0,-3.534652095E0,-1.292263895E-1,4.390562342E0
1.056681637E1,2.661637362E0,-3.467663176E0,-3.050837392E-1,4.382017508E0
1.057679837E1,2.630585724E0,-3.376601271E0,-4.339236277E-1,4.302290914E0
1.058677937E1,2.524499105E0,-3.315612473E0,-4.702681661E-1,4.193749390E0
1.059676137E1,2.353535875E0,-3.287078353E0,-4.378336608E-1,4.066412857E0
1.060674337E1,2.072412271E0,-3.245581540E0,-3.373755723E-1,3.865554868E0
1.061672538E1,1.800955870E0,-3.174078279E0,-1.638606173E-1,3.653089825E0
1.062670637E1,1.622921602E0,-3.075236068E0,6.753709495E-2,3.477860357E0
1.063668838E1,1.490760494E0,-3.026037011E0,2.776305135E-1,3.384722374E0
1.064667037E1,1.367840912E0,-2.950422865E0,4.956538528E-1,3.289628639E0
1.065665237E1,1.314383327E0,-2.794846290E0,7.446510994E-1,3.176991435E0
1.066663437E1,1.279415808E0,-2.644062386E0,1.052781823E0,3.120307722E0
1.067661537E1,1.247182447E0,-2.523970225E0,1.291354069E0,3.097335158E0
1.068659737E1,1.244320820E0,-2.406107899E0,1.449622993E0,3.072311238E0
1.069657904E1,1.159084788E0,-2.262383484E0,1.599008828E0,3.003112687E0
1.070656104E1,9.629984111E-1,-2.102651147E0,1.667662742E0,2.851246536E0
1.071654304E1,5.832387114E-1,-1.960622279E0,1.752492977E0,2.693592165E0
1.072652404E1,7.431343317E-2,-1.755580745E0,1.878182970E0,2.571994850E0
1.073650604E1,-3.648469609E-1,-1.441646076E0,1.921992064E0,2.430125554E0
1.074648804E1,-8.535683548E-1,-1.099629422E0,1.892116885E0,2.349014710E0
1.075647004E1,-1.448587452E0,-7.537634003E-1,1.754062369E0,2.396518238E0
1.076645204E1,-1.953783960E0,-3.297165969E-1,1.583631821E0,2.536508337E0
1.077643304E1,-2.375967548E0,1.228853765E-1,1.397843560E0,2.759400157E0
1.078641504E1,-2.812235325E0,5.452601686E-1,1.158147406E0,3.089867568E0
1.079639704E1,-3.277032251E0,8.780670190E-1,8.367804140E-1,3.494301579E0
1.080637904E1,-3.637825338E0,1.203044740E0,5.423052416E-1,3.869778393E0
1.081636104E1,-4.030958789E0,1.192746624E0,1.558276941E-1,4.206608555E0
1.082634204E1,-4.480983894E0,7.486836317E-1,-1.112830571E-1,4.544461218E0
1.083632404E1,-4.918642139E0,1.966231513E-1,-2.890635377E-1,4.931050485E0
1.084630604E1,-5.312615250E0,-2.665345082E-1,-2.930963624E-1,5.327365852E0
1.085628804E1,-5.581455608E0,-4.095155954E-1,2.087222099E-2,5.596497599E0
1.086627004E1,-5.696174471E0,-2.147308087E-1,4.047594702E-1,5.714572876E0
1.087625104E1,-5.754765911E0,1.708755219E-1,7.668880606E-1,5.808153444E0
1.088623304E1,-5.695490931E0,7.573126602E-1,1.074609479E0,5.845248065E0
1.089621504E1,-5.271480673E0,1.373676141E0,1.285936038E0,5.597242725E0
1.090619704E1,-4.637226759E0,1.919812807E0,1.550807891E0,5.253052288E0
1.091617804E1,-3.751897498E0,2.443302622E0,1.773545877E0,4.815799780E0
1.092616004E1,-2.762522298E0,2.868589912E0,1.941366813E0,4.430490112E0
1.093614204E1,-1.982647571E0,3.111390572E0,2.029055167E0,4.210547180E0
1.094612404E1,-1.231438819E0,3.240083403E0,1.980001706E0,3.991865326E0
1.095610604E1,-4.823432511E-1,3.311403354E0,1.944612018E0,3.870344053E0
1.096608704E1,1.887504601E-1,3.359191771E0,1.926794382E0,3.877155230E0
1.097606904E1,7.370152205E-1,3.530383919E0,1.864594041E0,4.059989285E0
1.098605104E1,1.131313437E0,3.722903787E0,1.620925362E0,4.215125352E0
1.099603304E1,1.337333064E0,3.856858528E0,1.180161077E0,4.249305543E0
1.100601504E1,1.337060584E0,3.969342000E0,6.330242443E-1,4.236050827E0
1.101599604E1,1.198500284E0,4.084564600E0,1.266390149E-1,4.258651001E0
1.102597804E1,9.924023044E-1,4.115186176E0,-2.717657197E-1,4.241871781E0
1.103596004E1,8.262419772E-1,4.026697923E0,-6.280786693E-1,4.158299506E0
1.104594204E1,6.252731752E-1,3.866775405E0,-9.410146344E-1,4.028452199E0
1.105592404E1,3.812495703E-1,3.648159122E0,-1.097163359E0,3.828600743E0
1.106590504E1,5.669518769E-2,3.330785705E0,-1.096021982E0,3.506937687E0
1.107588704E1,-3.226049209E-1,2.998556559E0,-9.607127345E-1,3.165183144E0
1.108586904E1,-7.708314228E-1,2.665677788E0,-7.206623125E-1,2.866944946E0
1.109585104E1,-1.225000450E0,2.361026451E0,-4.601045724E-1,2.699401456E0
1.110583304E1,-1.656985726E0,2.042587963E0,-1.890265218E-1,2.636948674E0
1.111581404E1,-2.044608176E0,1.771469823E0,5.950945258E-2,2.705932243E0
1.112579604E1,-2.340262696E0,1.573619926E0,3.442899048E-1,2.841064007E0
1.113577804E1,-2.496148880E0,1.359863263E0,7.326022538E-1,2.935420479E0
1.114576004E1,-2.536446721E0,1.210682373E0,1.152589189E0,3.037725402E0
1.115574104E1,-2.491573434E0,1.074458913E0,1.656595716E0,3.179105141E0
1.116572304E1,-2.232845251E0,8.804518059E-1,2.182626439E0,3.244171924E0
1.117570504E1,-1.841533207E0,7.319383755E-1,2.593493911E0,3.263922335E0
1.118568704E1,-1.281983321E0,6.224904853E-1,2.914219537E0,3.244017748E0
1.119566904E1,-7.413234490E-1,5.125561067E-1,2.914051137E0,3.050240687E0
1.120565004E1,-4.908965582E-1,3.864129540E-1,2.528506787E0,2.604542373E0
1.121563204E1,-2.639631951E-1,4.764089119E-1,1.796167585E0,1.876928345E0
1.122561404E1,2.295698726E-1,5.147818494E-1,8.103644478E-1,9.871135787E-1
1.123559604E1,6.529445386E-1,4.533013004E-1,-1.145773602E-1,8.030856809E-1
1.124557804E1,9.384786969E-1,4.353924483E-1,-6.624966232E-1,1.228499338E0
1.125555904E1,1.135290713E0,4.184267521E-1,-1.009107800E0,1.575520391E0
1.126554104E1,1.373555980E0,2.983226037E-1,-1.313591030E0,1.923843497E0
1.127552304E1,1.661891540E0,1.502357277E-1,-1.506270819E0,2.247955970E0
1.128550504E1,1.918577290E0,-6.645916075E-2,-1.696431627E0,2.561881321E0
1.129548704E1,2.175633169E0,-3.244228202E-1,-1.834644603E0,2.864358684E0
1.130546804E1,2.302147620E0,-5.959105048E-1,-1.922299043E0,3.057814024E0
1.131545004E1,2.331751488E0,-8.040500396E-1,-2.034595989E0,3.197364901E0
1.132543204E1,2.398322039E0,-9.495354894E-1,-2.041006876E0,3.289266684E0
1.133541404E1,2.385641182E0,-1.069195834E0,-2.123170781E0,3.367835766E0
1.134539604E1,2.414901234E0,-1.132718816E0,-2.388018075E0,3.580143881E0
1.135537704E1,2.534681447E0,-1.123493956E0,-2.873496019E0,3.992972336E0
1.136535904E1,2.665567861E0,-1.128188978E0,-2.795987667E0,4.024376899E0
1.137534104E1,2.719976202E0,-7.548664775E-1,-2.271437459E0,3.623192249E0
1.138532304E1,2.481249590E0,-2.355922124E-1,-2.405573756E0,3.463941153E0
1.139530404E1,2.248855512E0,-6.507483244E-2,-2.456897106E0,3.331355466E0
1.140528604E1,2.048329344E0,1.901052600E-1,-2.143679305E0,2.971052688E0
1.141526804E1,1.908370391E0,5.340750298E-1,-1.815989061E0,2.687922982E0
1.142525004E1,1.775409969E0,7.356332311E-1,-1.670247796E0,2.546166630E0
1.143523204E1,1.676482682E0,8.298090711E-1,-1.569762225E0,2.441993186E0
1.144521304E1,1.655619231E0,8.992614216E-1,-1.465536191E0,2.386952549E0
1.145519504E1,1.606001514E0,9.646400169E-1,-1.414395858E0,2.347400023E0
1.146517704E1,1.522000414E0,1.041375367E0,-1.431161579E0,2.334346028E0
1.147515904E1,1.338745751E0,1.111297833E0,-1.417610657E0,2.244291210E0
1.148514104E1,9.626306212E-1,1.091628677E0,-1.444739399E0,2.050751768E0
1.149512204E1,4.534159058E-1,9.791142145E-1,-1.470056089E0,1.823544771E0
1.150510404E1,-1.090382928E-1,7.459579521E-1,-1.462617846E0,1.645476702E0
1.151508604E1,-6.542408663E-1,4.536220202E-1,-1.383733644E0,1.596409360E0
1.152506804E1,-1.109317966E0,1.810078695E-1,-1.238466588E0,1.672468142E0
1.153504904E1,-1.516571859E0,-8.341930211E-3,-1.043812194E0,1.841087637E0
1.154503104E1,-1.885559818E0,-1.688441992E-1,-8.823881114E-1,2.088648599E0
1.155501304E1,-2.263113363E0,-3.950215173E-1,-7.938600969E-1,2.430625011E0
1.156499504E1,-2.711805888E0,-6.813041192E-1,-6.949257928E-1,2.881143581E0
1.157497704E1,-3.119177894E0,-9.074583408E-1,-4.400187653E-1,3.278165324E0
1.158495804E1,-3.413215073E0,-1.119130471E0,-1.669146637E-2,3.592042421E0
1.159494004E1,-3.540366286E0,-1.243310713E0,4.468629313E-1,3.778849223E0
1.160492204E1,-3.468287659E0,-1.190113038E0,9.867012691E-1,3.797231586E0
1.161490404E1,-3.274838376E0,-8.999759513E-1,1.470308104E0,3.700855174E0
1.162488604E1,-2.990991139E0,-3.815048012E-1,1.819621936E0,3.521732230E0
1.163486704E1,-2.621314378E0,2.745411006E-1,1.978010144E0,3.295327907E0
1.164484904E1,-2.243330478E0,8.585627541E-1,1.870111474E0,3.044171244E0
1.165483104E1,-1.874494547E0,1.307531852E0,1.615083994E0,2.798547062E0
1.166481304E1,-1.533534631E0,1.542545190E0,1.187447877E0,2.478145797E0
1.167479504E1,-1.262981039E0,1.441566992E0,6.192540514E-1,2.014128119E0
1.168477604E1,-1.053466532E0,1.103090389E0,5.228932897E-2,1.526215684E0
1.169475812E1,-8.975271374E-1,6.994544613E-1,-3.528326869E-1,1.191336397E0
1.170474012E1,-7.165575671E-1,3.111788768E-1,-6.412161934E-1,1.010665744E0
1.171472212E1,-5.072418648E-1,3.111186504E-2,-7.463888919E-1,9.029721123E-1
1.172470312E1,-3.324586487E-1,-1.839042878E-1,-8.201573646E-1,9.038847509E-1
1.173468512E1,-3.064993501E-1,-3.084549513E-1,-9.346364915E-1,1.030840279E0
1.174466712E1,-3.231031036E-1,-2.695241895E-1,-1.037197824E0,1.119293630E0
1.175464912E1,-4.045261663E-1,-7.756302327E-2,-1.072517345E0,1.148891160E0
1.176463112E1,-5.449949974E-1,1.965491840E-1,-1.016547797E0,1.170051517E0
1.177461212E1,-6.009744859E-1,4.701450822E-1,-9.129339659E-1,1.189813077E0
1.178459412E1,-6.665352219E-1,7.679405594E-1,-7.882011616E-1,1.286570237E0
1.179457612E1,-6.612066543E-1,9.507891324E-1,-6.697869316E-1,1.337837340E0
1.180455812E1,-6.674508959E-1,1.030767640E0,-5.254108449E-1,1.335675553E0
1.181454012E1,-6.342773026E-1,1.021079096E0,-3.613123190E-1,1.255172024E0
1.182452113E1,-5.363539821E-1,9.576768601E-1,-1.964150635E-1,1.115078221E0
1.183450312E1,-3.882855248E-1,7.400040248E-1,-5.688244477E-3,8.357056669E-1
1.184448512E1,-1.823039049E-1,4.171175605E-1,3.185318235E-1,5.555936425E-1
1.185446712E1,7.352990627E-2,1.165241906E-1,7.103735518E-1,7.236125464E-1
1.186444912E1,3.431549603E-1,-1.737046972E-1,1.028736902E0,1.098284236E0
1.187443012E1,5.537704986E-1,-4.717782095E-1,1.241258633E0,1.438735361E0
1.188441212E1,7.430875540E-1,-7.214081249E-1,1.400566024E0,1.741893792E0
1.189439413E1,9.355001253E-1,-9.049747360E-1,1.569203231E0,2.038759068E0
1.190437612E1,1.076874105E0,-1.036163743E0,1.692326882E0,2.257711987E0
1.191435713E1,1.144120009E0,-1.158170283E0,1.799160190E0,2.426385457E0
1.192433912E1,1.180631193E0,-1.248754179E0,1.841078879E0,2.518501231E0
1.193432112E1,1.166844628E0,-1.313667043E0,1.909837457E0,2.595135179E0
1.194430312E1,1.199268023E0,-1.348999721E0,1.924636760E0,2.638611509E0
1.195428512E1,1.270173115E0,-1.415266362E0,1.889610769E0,2.680848275E0
1.196426612E1,1.325286046E0,-1.481111858E0,1.792198495E0,2.676200830E0
1.197424812E1,1.400825640E0,-1.549171255E0,1.706047958E0,2.696821034E0
1.198423013E1,1.577005171E0,-1.538137705E0,1.620537107E0,2.734767527E0
1.199421212E1,1.750248815E0,-1.512074473E0,1.531436065E0,2.773992889E0
1.200419412E1,1.908089724E0,-1.479923850E0,1.430093293E0,2.806447545E0
1.201417512E1,2.035418108E0,-1.393617485E0,1.345361291E0,2.809820914E0
1.202415712E1,2.110843096E0,-1.325720932E0,1.302773681E0,2.812545792E0
1.203413912E1,2.077330949E0,-1.293323265E0,1.230263529E0,2.738893443E0
1.204412112E1,1.984720409E0,-1.312426410E0,1.167301880E0,2.650315427E0
1.205410212E1,1.817168444E0,-1.378785730E0,1.112030489E0,2.537668823E0
1.206408412E1,1.602330632E0,-1.502620402E0,1.057079526E0,2.437775349E0
1.207406613E1,1.354746072E0,-1.669226141E0,9.635251721E-1,2.355850926E0
1.208404812E1,1.046466830E0,-1.802297075E0,8.481737868E-1,2.250059187E0
1.209403012E1,7.063202620E-1,-1.894610576E0,7.921585572E-1,2.171624445E0
1.210401112E1,3.821933109E-1,-1.938566582E0,7.890396523E-1,2.127603274E0
1.211399312E1,6.316688597E-2,-1.914315547E0,8.131290114E-1,2.080810625E0
1.212397512E1,-1.381527489E-1,-1.801672738E0,8.683175178E-1,2.004765859E0
1.213395712E1,-3.249864918E-1,-1.648808395E0,8.681958226E-1,1.891546808E0
1.214393913E1,-5.183088899E-1,-1.529529581E0,8.128893486E-1,1.808008279E0
1.215392012E1,-8.041798478E-1,-1.582115053E0,6.688045263E-1,1.896600317E0
1.216390213E1,-1.265552060E0,-1.862799531E0,4.766370264E-1,2.301918105E0
1.217388412E1,-1.760036470E0,-2.264835660E0,3.346268693E-1,2.887764548E0
1.218386612E1,-2.040298194E0,-2.513585570E0,3.017666137E-1,3.251460014E0
1.219384712E1,-2.207697546E0,-2.525470328E0,4.240680727E-1,3.381088961E0
1.220382912E1,-2.315145396E0,-2.403751178E0,5.554644370E-1,3.383261544E0
1.221381112E1,-2.440640677E0,-2.209830025E0,6.129015633E-1,3.348988501E0
1.222379312E1,-2.633916882E0,-2.019997538E0,6.331014276E-1,3.379160490E0
1.223377513E1,-2.695861700E0,-1.711160179E0,6.800533998E-1,3.264691730E0
1.224375612E1,-2.530976651E0,-1.267145134E0,6.978195798E-1,2.915210415E0
1.225373813E1,-2.170056680E0,-7.330367750E-1,6.767193174E-1,2.388396521E0
1.226372012E1,-1.677136985E0,-1.858870786E-1,4.977337440E-1,1.759284330E0
1.227370212E1,-1.175589139E0,2.876198602E-1,9.668491680E-2,1.214118191E0
1.228368412E1,-7.397768605E-1,6.521212506E-1,-3.147871935E-1,1.035192207E0
1.229366512E1,-2.845500720E-1,9.795700049E-1,-7.641223276E-1,1.274523075E0
1.230364712E1,1.341982770E-1,1.231109329E0,-1.166374512E0,1.701196302E0
1.231362912E1,5.101280504E-1,1.447361290E0,-1.523034786E0,2.162110148E0
1.232361113E1,8.572047383E-1,1.621151065E0,-1.765046364E0,2.545254291E0
1.233359312E1,1.119022590E0,1.738117012E0,-2.023958734E0,2.893038414E0
1.234357412E1,1.282763924E0,1.817963958E0,-2.313222247E0,3.209590846E0
1.235355612E1,1.452851826E0,1.918067121E0,-2.514372897E0,3.480205594E0
1.236353812E1,1.567722132E0,1.962831065E0,-2.650718856E0,3.651954124E0
1.237352012E1,1.625259903E0,1.956000932E0,-2.764723189E0,3.756474905E0
1.238350112E1,1.615311450E0,1.942697639E0,-2.845304253E0,3.805136199E0
1.239348312E1,1.542773817E0,1.879605013E0,-2.869274914E0,3.761090877E0
1.240346512E1,1.400291789E0,1.725484980E0,-2.848449470E0,3.612724719E0
1.241344712E1,1.130893022E0,1.483486558E0,-2.701613606E0,3.283042411E0
1.242342912E1,7.688503861E-1,1.184551459E0,-2.396082555E0,2.781277528E0
1.243341012E1,4.141126764E-1,9.367449975E-1,-1.996563359E0,2.243935326E0
1.244339212E1,9.126918912E-3,6.678660482E-1,-1.591999186E0,1.726438463E0
1.245337412E1,-4.289219195E-1,3.544368705E-1,-1.187126280E0,1.311056182E0
1.246335612E1,-8.510142910E-1,5.646393031E-2,-7.809177967E-1,1.156393577E0
1.247333812E1,-1.250245804E0,-1.380913532E-1,-2.563173759E-1,1.283698714E0
1.248331912E1,-1.501084338E0,-2.233250463E-1,2.931536651E-1,1.545660810E0
1.249330112E1,-1.610555325E0,-1.873567763E-1,8.268208516E-1,1.820061465E0
1.250328312E1,-1.651463615E0,-1.111570314E-1,1.328440619E0,2.122367177E0
1.251326512E1,-1.641298231E0,2.826777935E-2,1.797662133E0,2.434388649E0
1.252324612E1,-1.542061041E0,2.148287496E-1,2.227330742E0,2.717555129E0
1.253322812E1,-1.300553493E0,3.936456674E-1,2.535262660E0,2.876447992E0
1.254321012E1,-1.070709971E0,4.941531649E-1,2.685082358E0,2.932622455E0
1.255319212E1,-8.277189839E-1,4.991449329E-1,2.655501294E0,2.825942587E0
1.256317412E1,-4.139898849E-1,4.762103990E-1,2.515617185E0,2.593548494E0
1.257315512E1,1.351431870E-1,4.138624156E-1,2.253251449E0,2.294926550E0
1.258313712E1,5.738053983E-1,2.788507909E-1,1.879056544E0,1.984405174E0
1.259311912E1,1.006526254E0,1.303771216E-1,1.530889643E0,1.836767920E0
1.260310112E1,1.414905735E0,4.295130730E-2,1.294992206E0,1.918543163E0
1.261308212E1,1.714366207E0,-7.429618388E-2,1.112777691E0,2.045200627E0
1.262306412E1,1.982570388E0,-1.529827496E-1,8.185376128E-1,2.150347155E0
1.263304613E1,2.154632894E0,-2.349753311E-1,1.121039148E-1,2.170304956E0
1.264302812E1,2.240815591E0,-3.637509003E-1,-6.939346167E-1,2.373839607E0
1.265301012E1,2.268775222E0,-4.822029179E-1,-9.686403164E-1,2.513588018E0
1.266299112E1,2.230665994E0,-5.586798209E-1,-1.159026901E0,2.575138302E0
1.267297312E1,2.120230216E0,-5.882091370E-1,-1.278954463E0,2.545012903E0
1.268295512E1,1.985993348E0,-5.408016667E-1,-1.337583325E0,2.454743402E0
1.269293712E1,1.928465517E0,-4.167105943E-1,-1.233023415E0,2.326579831E0
1.270291904E1,1.971890448E0,-2.823246217E-1,-9.885443846E-1,2.223798357E0
1.271290004E1,2.036860031E0,-1.917284471E-1,-8.049826705E-1,2.198534895E0
1.272288204E1,2.022384664E0,-1.679267710E-1,-7.240009996E-1,2.154626784E0
1.273286404E1,1.944484549E0,-1.468004885E-1,-5.904751889E-1,2.037457114E0
1.274284604E1,1.888057748E0,-4.284284145E-2,-3.573104846E-1,1.922047958E0
1.275282804E1,1.862387302E0,1.130488980E-1,-2.395370364E-1,1.881128520E0
1.276280904E1,1.684364144E0,2.162350050E-1,-1.924844921E-1,1.709061270E0
1.277279104E1,1.390569624E0,3.596943945E-1,-2.409918237E-1,1.456413744E0
1.278277304E1,9.416648448E-1,4.903308401E-1,-4.553811550E-1,1.155218165E0
1.279275504E1,5.315890861E-1,6.286613443E-1,-8.111234164E-1,1.155734935E0
1.280273604E1,2.839098018E-1,9.046668801E-1,-1.351366966E0,1.650823921E0
1.281271804E1,7.984080613E-2,1.212033957E0,-2.051909595E0,2.384477689E0
1.282270004E1,-3.331041813E-2,1.451909840E0,-2.608056402E0,2.985148231E0
1.283268204E1,-1.154871869E-1,1.655531523E0,-3.120799327E0,3.534616012E0
1.284266404E1,-3.127675653E-1,1.775835939E0,-3.662367271E0,4.082199268E0
1.285264504E1,-6.462863141E-1,1.956894387E0,-4.265666610E0,4.737407864E0
1.286262704E1,-1.162506579E0,2.050514157E0,-4.448920103E0,5.034771090E0
1.287260904E1,-1.482436983E0,1.939346600E0,-4.484117417E0,5.105486623E0
1.288259104E1,-1.958990321E0,1.620214633E0,-4.164723787E0,4.879309660E0
1.289257304E1,-2.820418503E0,1.291116964E0,-4.034579385E0,5.089162442E0
1.290255404E1,-3.511580443E0,8.848249385E-1,-3.945545002E0,5.355505368E0
1.291253604E1,-4.112492364E0,2.334655800E-1,-3.711820098E0,5.544791074E0
1.292251804E1,-4.301936889E0,-2.550824440E-1,-3.427944794E0,5.506590012E0
1.293250004E1,-3.575806845E0,-4.254925275E-1,-2.642108247E0,4.466337926E0
1.294248104E1,-2.735957812E0,-5.212389296E-1,-1.226003832E0,3.043064338E0
1.295246304E1,-2.544553885E0,-6.548045379E-1,2.449240762E-1,2.638846578E0
1.296244504E1,-2.646278481E0,-5.811714283E-1,1.333399642E0,3.019686181E0
1.297242704E1,-3.063000770E0,-4.830399469E-1,1.563747194E0,3.472838406E0
1.298240904E1,-3.467570205E0,-3.678655860E-1,1.410220946E0,3.761394866E0
1.299239004E1,-3.624396037E0,-2.580455205E-1,1.564907867E0,3.956231889E0
1.300237204E1,-3.632341234E0,-1.632565999E-1,1.508803833E0,3.936628578E0
1.301235404E1,-3.487943659E0,-8.791493386E-2,1.431839272E0,3.771424625E0
1.302233604E1,-3.099243566E0,-3.359868586E-2,1.180186805E0,3.316516312E0
1.303231704E1,-2.450482711E0,-4.978231698E-2,7.279853654E-1,2.556815693E0
1.304229904E1,-1.617902936E0,-4.867017657E-2,2.015909640E-1,1.631139974E0
1.305228104E1,-8.455465597E-1,-7.236572564E-2,-1.867729318E-1,8.689475881E-1
1.306226304E1,-2.109073144E-1,-1.589317068E-1,-4.007763469E-1,4.799613140E-1
1.307224504E1,2.911024618E-1,-3.091003378E-1,-6.283581662E-1,7.583651147E-1
1.308222604E1,6.624813473E-1,-5.869617797E-1,-9.181952906E-1,1.275338488E0
1.309220804E1,8.918804812E-1,-9.749610834E-1,-1.183006332E0,1.773556847E0
1.310219004E1,1.045025491E0,-1.454914139E0,-1.383065307E0,2.263122417E0
1.311217204E1,1.141244933E0,-1.919135845E0,-1.527340676E0,2.705234173E0
1.312215404E1,1.093359160E0,-2.394208815E0,-1.556938112E0,3.058059252E0
1.313213504E1,9.116417313E-1,-2.880343985E0,-1.406462356E0,3.332507836E0
1.314211704E1,6.640606803E-1,-3.302637793E0,-1.149844433E0,3.559569525E0
1.315209904E1,4.452917844E-1,-3.566089942E0,-7.709074366E-1,3.675538127E0
1.316208104E1,3.077097237E-1,-3.647620593E0,-2.793145481E-1,3.671217493E0
1.317206204E1,1.400583565E-1,-3.639025479E0,1.593448126E-1,3.645204185E0
1.318204404E1,1.327329648E-1,-3.496725592E0,5.332952305E-1,3.539648529E0
1.319202604E1,2.638462508E-1,-3.274875214E0,7.923010831E-1,3.379669143E0
1.320200804E1,3.738575202E-1,-2.983138621E0,9.644431119E-1,3.157378025E0
1.321199004E1,5.281737274E-1,-2.692395471E0,1.119576760E0,2.963344897E0
1.322197104E1,7.678692234E-1,-2.422559625E0,1.238613353E0,2.827115370E0
1.323195304E1,9.974788570E-1,-2.217465320E0,1.390341436E0,2.800922316E0
1.324193504E1,1.245535871E0,-2.117508630E0,1.527492703E0,2.892824980E0
1.325191704E1,1.475222104E0,-2.092899453E0,1.677997695E0,3.061402398E0
1.326189804E1,1.671873322E0,-2.150934530E0,1.840724537E0,3.287848321E0
1.327188004E1,1.860356564E0,-2.241353827E0,1.978923625E0,3.521467342E0
1.328186204E1,2.038872058E0,-2.337752632E0,2.020579044E0,3.702003013E0
1.329184404E1,2.252120597E0,-2.443378051E0,1.981686873E0,3.869008445E0
1.330182604E1,2.483984333E0,-2.503359959E0,1.943175942E0,4.026527286E0
1.331180704E1,2.593068234E0,-2.571656315E0,1.903261678E0,4.118230698E0
1.332178904E1,2.619064370E0,-2.620187620E0,1.851572292E0,4.141642342E0
1.333177104E1,2.589435359E0,-2.611037312E0,1.718494341E0,4.059053353E0
1.334175304E1,2.539007217E0,-2.589649951E0,1.474734446E0,3.915058902E0
1.335173504E1,2.479904730E0,-2.594632072E0,1.213128848E0,3.788630974E0
1.336171604E1,2.402613310E0,-2.615434126E0,9.585340619E-1,3.678564113E0
1.337169804E1,2.335572644E0,-2.654338868E0,7.907061088E-1,3.622931210E0
1.338168004E1,2.241054742E0,-2.702011509E0,7.478706495E-1,3.589220397E0
1.339166204E1,2.110075942E0,-2.797916079E0,7.297349254E-1,3.579562532E0
1.340164404E1,2.009456470E0,-2.804876604E0,7.445423412E-1,3.529814636E0
1.341162504E1,1.903866865E0,-2.759103431E0,8.516892059E-1,3.458718734E0
1.342160704E1,1.772450109E0,-2.715488757E0,9.574394631E-1,3.381146093E0
1.343158904E1,1.674085323E0,-2.644892691E0,1.010442207E0,3.289226728E0
1.344157104E1,1.586046136E0,-2.564886408E0,1.040586870E0,3.190141951E0
1.345155204E1,1.498811526E0,-2.449108907E0,1.027330062E0,3.049586445E0
1.346153404E1,1.414831476E0,-2.276929749E0,1.029925130E0,2.871742147E0
1.347151604E1,1.311401247E0,-2.049098546E0,1.110769976E0,2.674394889E0
1.348149804E1,1.151548896E0,-1.814302870E0,1.174398134E0,2.448871320E0
1.349148004E1,9.596538037E-1,-1.558962125E0,1.214220012E0,2.196731337E0
1.350146104E1,5.516836274E-1,-1.348798138E0,1.212340643E0,1.895621555E0
1.351144304E1,-3.656965613E-2,-1.147295486E0,1.327669955E0,1.755087400E0
1.352142504E1,-7.064138174E-1,-8.729961674E-1,1.373960023E0,1.774516535E0
1.353140704E1,-1.195328754E0,-5.338013801E-1,1.257993364E0,1.815572100E0
1.354138804E1,-1.499480447E0,-2.163996041E-1,8.873839724E-1,1.755767842E0
1.355137004E1,-1.564406760E0,8.047142833E-2,4.031164026E-1,1.617512596E0
1.356135204E1,-1.624410887E0,2.296423781E-1,-1.029554709E-1,1.643790188E0
1.357133404E1,-1.469485400E0,2.554084262E-1,-5.510088587E-1,1.590041373E0
1.358131604E1,-1.221739458E0,1.124671000E-1,-8.763713264E-1,1.507754242E0
1.359129704E1,-9.218018532E-1,2.551958799E-2,-1.043875344E0,1.392855211E0
1.360127904E1,-7.544405079E-1,-5.354675442E-2,-1.116398360E0,1.348478043E0
1.361126104E1,-7.728434497E-1,-1.731734776E-1,-1.131180121E0,1.380885410E0
1.362124304E1,-1.006333296E0,-3.949548590E-1,-1.238777075E0,1.644160784E0
1.363122504E1,-1.466167105E0,-7.118420801E-1,-1.366391387E0,2.126826403E0
1.364120604E1,-1.990783387E0,-9.940234450E-1,-1.249019058E0,2.551734647E0
1.365118804E1,-2.423137622E0,-1.020861580E0,-8.347157621E-1,2.758714321E0
1.366117004E1,-2.651832166E0,-7.809547073E-1,-2.182508143E-1,2.773037596E0
1.367115204E1,-2.803845155E0,-4.522520176E-1,2.830870621E-1,2.854157989E0
1.368113304E1,-3.001742415E0,-2.316853952E-1,5.667016160E-1,3.063541475E0
1.369111504E1,-3.324701677E0,-9.410976648E-2,7.987273192E-1,3.420593986E0
1.370109667E1,-3.531084416E0,1.459701839E-1,1.143495526E0,3.714491414E0
1.371107867E1,-3.564551539E0,5.730739117E-1,1.517857661E0,3.916418423E0
1.372106067E1,-3.469246017E0,1.050613383E0,1.823612076E0,4.057710859E0
1.373104167E1,-3.291029901E0,1.511583014E0,2.044790025E0,4.158957473E0
1.374102367E1,-3.036632751E0,1.926101487E0,2.173110681E0,4.201596772E0
1.375100567E1,-2.705748757E0,2.321190248E0,2.252103056E0,4.216748591E0
1.376098767E1,-2.235034449E0,2.665860514E0,2.157020313E0,4.093278380E0
1.377096867E1,-1.717415530E0,2.941374006E0,1.886398308E0,3.893545393E0
1.378095067E1,-1.252699880E0,3.139243784E0,1.566714656E0,3.725413177E0
1.379093267E1,-8.706012940E-1,3.293611447E0,1.250974367E0,3.629154149E0
1.380091467E1,-5.774365193E-1,3.428150616E0,9.469483888E-1,3.603104333E0
1.381089667E1,-2.935232091E-1,3.597159122E0,6.014481834E-1,3.658886380E0
1.382087767E1,-4.761095345E-2,3.683699083E0,2.307229435E-1,3.691224569E0
1.383085967E1,1.046417713E-2,3.681804001E0,-1.202959371E-1,3.683783559E0
1.384084167E1,-2.668786168E-2,3.612586416E0,-4.417617472E-1,3.639594249E0
1.385082367E1,-3.091189027E-2,3.546346818E0,-6.182494998E-1,3.599967187E0
1.386080567E1,-1.553482407E-1,3.297912074E0,-7.016131803E-1,3.375295273E0
1.387078667E1,-4.452555317E-1,2.892219388E0,-6.715748640E-1,3.002365446E0
1.388076867E1,-7.757734895E-1,2.474718250E0,-4.883408133E-1,2.639039915E0
1.389075067E1,-1.169264206E0,1.995158566E0,-1.963765450E-1,2.320861959E0
1.390073267E1,-1.642746001E0,1.478162961E0,1.997512655E-1,2.218891780E0
1.391071367E1,-2.006173258E0,1.064198219E0,6.444836906E-1,2.360637249E0
1.392069567E1,-2.221222740E0,7.536140040E-1,1.070917693E0,2.578493598E0
1.393067767E1,-2.354896522E0,5.206901684E-1,1.527580411E0,2.854848121E0
1.394065967E1,-2.461352684E0,3.820538548E-1,1.986818244E0,3.186168376E0
1.395064167E1,-2.549796499E0,2.978065869E-1,2.443478916E0,3.544113452E0
1.396062267E1,-2.530575532E0,2.264322567E-1,2.839285129E0,3.810068783E0
1.397060467E1,-2.273488078E0,2.174643821E-1,3.189890027E0,3.923192218E0
1.398058667E1,-1.977969798E0,2.769171166E-1,3.395204480E0,3.939093940E0
1.399056867E1,-1.486887299E0,3.588243288E-1,3.362225014E0,3.693798287E0
1.400054967E1,-8.943526840E-1,4.784645006E-1,3.108315521E0,3.269620832E0
1.401053167E1,-4.505115938E-1,4.443930674E-1,2.694523273E0,2.767833369E0
1.402051367E1,-1.844644511E-1,4.789246765E-1,2.179291188E0,2.238907336E0
1.403049567E1,3.008801758E-1,5.835287333E-1,1.636836805E0,1.763595586E0
1.404047767E1,7.839303553E-1,5.015010685E-1,9.766627693E-1,1.349044213E0
1.405045867E1,1.170031360E0,2.632322931E-1,2.262919235E-1,1.220439535E0
1.406044067E1,1.534730387E0,5.087516159E-2,-4.725193075E-1,1.606630056E0
1.407042267E1,1.939983362E0,-1.135087815E-1,-1.133286873E0,2.249613039E0
1.408040467E1,2.300936662E0,-2.161426190E-1,-1.631001869E0,2.828638232E0
1.409038567E1,2.718306237E0,-2.613816494E-1,-2.037154146E0,3.406979040E0
1.410036767E1,3.129470163E0,-2.343137187E-1,-2.323703966E0,3.904879837E0
1.411034967E1,3.383849772E0,-2.843606222E-1,-2.588502728E0,4.269853231E0
1.412033167E1,3.464699807E0,-3.492723173E-1,-2.682894915E0,4.395914129E0
1.413031367E1,3.381195136E0,-4.002310941E-1,-2.580018418E0,4.271903617E0
1.414029467E1,3.052213241E0,-5.848610213E-1,-2.385100315E0,3.917495577E0
1.415027667E1,2.562103134E0,-7.463543934E-1,-2.065633010E0,3.374649179E0
1.416025867E1,1.982220140E0,-8.502947912E-1,-1.686395466E0,2.737905693E0
1.417024067E1,1.482449262E0,-9.982591680E-1,-1.323063519E0,2.223662352E0
1.418022167E1,1.199126521E0,-9.902470207E-1,-1.066052079E0,1.885460318E0
1.419020367E1,1.031031350E0,-9.084877431E-1,-9.302633590E-1,1.659447360E0
1.420018567E1,9.342897516E-1,-8.236212552E-1,-1.008757551E0,1.602760465E0
1.421016767E1,8.644049996E-1,-6.508582520E-1,-1.118818522E0,1.556459878E0
1.422014967E1,8.673098963E-1,-4.392963418E-1,-1.294068346E0,1.618585993E0
1.423013067E1,8.746984380E-1,-2.392844367E-1,-1.526781097E0,1.775785718E0
1.424011267E1,8.592857623E-1,-5.332017481E-2,-1.841978180E0,2.033248307E0
1.425009467E1,8.435444731E-1,1.075431597E-1,-2.162655859E0,2.323835875E0
1.426007667E1,8.547038841E-1,2.657419181E-1,-2.375465857E0,2.538498678E0
1.427005867E1,7.998967624E-1,3.589032662E-1,-2.474158671E0,2.624901430E0
1.428003967E1,6.918589282E-1,4.019238630E-1,-2.427684417E0,2.556142249E0
1.429002167E1,5.577097678E-1,4.266830206E-1,-2.241969246E0,2.349366869E0
1.430000367E1,3.901554644E-1,4.435873210E-1,-2.074171699E0,2.156659276E0
1.430998567E1,1.552804130E-1,4.721085772E-1,-1.966850733E0,2.028669594E0
1.431996667E1,-2.252347469E-2,5.595452088E-1,-1.776342015E0,1.862522242E0
1.432994867E1,-2.092747718E-1,6.467371345E-1,-1.498722648E0,1.645671421E0
1.433993067E1,-4.158884758E-1,7.306815165E-1,-1.239537798E0,1.497769226E0
1.434991267E1,-5.727838898E-1,8.069999599E-1,-9.754132193E-1,1.389518358E0
1.435989467E1,-6.229459834E-1,8.782459438E-1,-7.038036203E-1,1.286358104E0
1.436987567E1,-7.157518208E-1,9.453377733E-1,-3.944864970E-1,1.249633455E0
1.437985767E1,-8.404407710E-1,9.844196856E-1,-1.130272816E-1,1.299306728E0
1.438983967E1,-9.955124384E-1,9.666859576E-1,9.711757421E-2,1.391027886E0
1.439982167E1,-1.245198487E0,8.136245629E-1,2.000806099E-1,1.500845246E0
1.440980267E1,-1.518769242E0,6.178667995E-1,2.481792212E-1,1.658316109E0
1.441978467E1,-1.716986929E0,4.519976637E-1,3.442103827E-1,1.808542726E0
1.442976667E1,-1.914407641E0,3.614707786E-1,4.649857914E-1,2.002955198E0
1.443974867E1,-2.079905478E0,3.211907718E-1,5.512906945E-1,2.175566993E0
1.444973067E1,-2.309432666E0,2.754670072E-1,4.945563304E-1,2.377803036E0
1.445971167E1,-2.577235728E0,2.215375525E-1,3.721963263E-1,2.613379611E0
1.446969367E1,-2.898454859E0,1.608741519E-1,3.037920892E-1,2.918768695E0
1.447967567E1,-3.136818359E0,2.162189251E-1,2.940634918E-1,3.157982485E0
1.448965767E1,-3.289197968E0,3.246698651E-1,3.305793536E-1,3.321673750E0
1.449963867E1,-3.391407298E0,4.994127354E-1,3.576566398E-1,3.446588866E0
1.450962067E1,-3.418503880E0,7.543460754E-1,3.766706157E-1,3.520949805E0
1.451960267E1,-3.367731337E0,1.081652742E0,4.660102236E-1,3.567737734E0
1.452958467E1,-3.266373362E0,1.452398959E0,4.844663751E-1,3.607404239E0
1.453956667E1,-3.075960538E0,1.796739150E0,3.940894711E-1,3.584007717E0
1.454954767E1,-2.833342604E0,2.045477365E0,1.345093489E-1,3.497127497E0
1.455952967E1,-2.549901749E0,2.168224162E0,-2.153880358E-1,3.354040392E0
1.456951167E1,-2.122400703E0,2.265324195E0,-5.573168349E-1,3.153867547E0
1.457949367E1,-1.645955538E0,2.235728805E0,-9.024493235E-1,2.919258075E0
1.458947467E1,-1.244201537E0,2.155825726E0,-1.270184809E0,2.794457277E0
1.459945667E1,-8.066421103E-1,2.053041908E0,-1.704652228E0,2.787739548E0
1.460943867E1,-4.389604193E-1,1.980605723E0,-2.029746893E0,2.869731299E0
1.461942067E1,-8.269249320E-2,1.867943326E0,-2.209686769E0,2.894609807E0
1.462940267E1,2.037637711E-1,1.646675623E0,-2.315682755E0,2.848762346E0
1.463938367E1,3.959792912E-1,1.392721691E0,-2.352759950E0,2.762598901E0
1.464936567E1,4.999603271E-1,1.083220381E0,-2.308832742E0,2.598852699E0
1.465934767E1,4.460975307E-1,7.433141336E-1,-2.142419230E0,2.311164007E0
1.466932967E1,2.497953916E-1,3.831060612E-1,-1.833835348E0,1.890005311E0
1.467931067E1,4.104745388E-3,1.493875891E-2,-1.438617364E0,1.438700781E0
1.468929267E1,-2.931472331E-1,-3.748255268E-1,-1.022909567E0,1.128172619E0
1.469927517E1,-5.440641207E-1,-7.498121443E-1,-5.999944925E-1,1.103728866E0
1.470925717E1,-7.602193111E-1,-1.080374833E0,-2.020447262E-1,1.336400110E0
1.471923917E1,-9.211048651E-1,-1.338978763E0,2.511308956E-1,1.644495371E0
1.472922017E1,-9.845395535E-1,-1.473748313E0,6.350777864E-1,1.882704442E0
1.473920217E1,-9.319391710E-1,-1.481830919E0,9.530400181E-1,1.993142937E0
1.474918417E1,-8.257999277E-1,-1.375237347E0,1.236661552E0,2.025476506E0
1.475916617E1,-6.876846009E-1,-1.216051286E0,1.443112704E0,2.008548012E0
1.476914817E1,-5.391156220E-1,-1.046728200E0,1.589749178E0,1.978279057E0
1.477912917E1,-3.872874051E-1,-8.505851054E-1,1.715684170E0,1.953729440E0
1.478911117E1,-2.988295573E-1,-7.067395073E-1,1.790945729E0,1.948400995E0
1.479909317E1,-2.710201997E-1,-6.672190538E-1,1.843127743E0,1.978826190E0
1.480907517E1,-2.899037826E-1,-7.299552923E-1,1.886100246E0,2.043098889E0
1.481905617E1,-2.817340529E-1,-8.335118204E-1,1.972503237E0,2.159834496E0
1.482903817E1,-2.157453007E-1,-1.003154165E0,2.004534284E0,2.251892983E0
1.483902017E1,-1.128693885E-1,-1.203865104E0,2.033102902E0,2.365488977E0
1.484900217E1,1.215045565E-1,-1.395951840E0,2.019713656E0,2.458187980E0
1.485898317E1,4.364046013E-1,-1.563630250E0,1.993944976E0,2.571226381E0
1.486896517E1,7.112810397E-1,-1.735988626E0,1.933651851E0,2.694176443E0
1.487894717E1,9.467285335E-1,-1.886329896E0,1.885752483E0,2.830299952E0
1.488892917E1,1.116753286E0,-2.013221054E0,1.882060698E0,2.973608814E0
1.489891117E1,1.230205641E0,-2.125423275E0,1.873753120E0,3.088977302E0
1.490889217E1,1.345739606E0,-2.250878356E0,1.852419115E0,3.210751476E0
1.491887417E1,1.433313355E0,-2.334502165E0,1.826371962E0,3.292403692E0
1.492885617E1,1.524189026E0,-2.432978486E0,1.782694430E0,3.379428344E0
1.493883817E1,1.622656138E0,-2.528138997E0,1.725757460E0,3.464496867E0
1.494881917E1,1.701777152E0,-2.642190985E0,1.622480721E0,3.536900107E0
1.495880117E1,1.822840828E0,-2.706142275E0,1.504740164E0,3.593076350E0
1.496878317E1,1.949078121E0,-2.750486974E0,1.475395327E0,3.679792859E0
1.497876517E1,2.079673344E0,-2.793218426E0,1.443836589E0,3.769850725E0
1.498874717E1,2.244515709E0,-2.852265363E0,1.437167255E0,3.903680083E0
1.499872817E1,2.407621450E0,-2.900689957E0,1.422319859E0,4.029098789E0
1.500871017E1,2.525556867E0,-2.923441473E0,1.402123722E0,4.109853825E0
1.501869217E1,2.598334821E0,-2.949392585E0,1.386365476E0,4.168005482E0
1.502867417E1,2.634460673E0,-2.995817139E0,1.365991291E0,4.216780238E0
1.503865517E1,2.626873911E0,-3.045141911E0,1.340421417E0,4.239113749E0
1.504863717E1,2.632918178E0,-3.052645643E0,1.334811745E0,4.246483951E0
1.505861917E1,2.610441481E0,-3.080982127E0,1.275490426E0,4.234823659E0
1.506860117E1,2.568553782E0,-3.067844018E0,1.206334383E0,4.179040332E0
1.507858317E1,2.513128610E0,-3.021487877E0,1.093624843E0,4.079365110E0
1.508856417E1,2.337431474E0,-3.013469591E0,9.166212201E-1,3.922343602E0
1.509854617E1,2.083274644E0,-2.980907031E0,6.897865288E-1,3.701573372E0
1.510852817E1,1.770793592E0,-2.909493232E0,4.385610545E-1,3.434122394E0
1.511851017E1,1.407585021E0,-2.792098099E0,6.598465919E-2,3.127532791E0
1.512849117E1,1.131864830E0,-2.672076396E0,-2.836671424E-1,2.915746441E0
1.513847317E1,8.516954917E-1,-2.552146203E0,-5.443920764E-1,2.745031545E0
1.514845517E1,5.265862083E-1,-2.430755228E0,-8.861608080E-1,2.640292596E0
1.515843717E1,2.383044434E-1,-2.313167721E0,-1.221531297E0,2.626722792E0
1.516841917E1,-8.361810744E-2,-2.208585738E0,-1.543772521E0,2.695937044E0
1.517840017E1,-3.138153863E-1,-2.095796603E0,-1.741814207E0,2.743129641E0
1.518838217E1,-5.031149000E-1,-2.203053687E0,-1.860938362E0,2.927398459E0
1.519836417E1,-6.954467797E-1,-2.495927563E0,-1.862203699E0,3.190784111E0
1.520834617E1,-8.479994667E-1,-2.721688852E0,-1.651361289E0,3.294493498E0
1.521832717E1,-1.019109462E0,-2.793186851E0,-1.310306064E0,3.249212037E0
1.522830917E1,-1.330012350E0,-2.726482984E0,-9.246506166E-1,3.171375266E0
1.523829117E1,-1.601109148E0,-2.468044823E0,-5.760209084E-1,2.997765141E0
1.524827317E1,-1.996590841E0,-2.097304746E0,-2.835256398E-1,2.909544461E0
1.525825517E1,-2.469525923E0,-1.757570699E0,-1.058147228E-1,3.032953972E0
1.526823617E1,-2.723469914E0,-1.301731122E0,3.128611207E-2,3.018736674E0
1.527821817E1,-2.785589563E0,-7.433845925E-1,1.064450344E-1,2.885040799E0
1.528820017E1,-2.684150897E0,-1.885174486E-1,7.471340099E-2,2.691799947E0
1.529818217E1,-2.430702749E0,3.661462122E-1,-5.448082885E-2,2.458728750E0
1.530816317E1,-2.089338207E0,8.436482611E-1,-2.187946236E-1,2.263834715E0
1.531814517E1,-1.749786301E0,1.283133468E0,-3.814302858E-1,2.203105231E0
1.532812717E1,-1.379025466E0,1.689983025E0,-5.005660987E-1,2.237927676E0
1.533810917E1,-1.068896164E0,2.016611123E0,-5.482653816E-1,2.347307896E0
1.534809117E1,-7.463175559E-1,2.312590163E0,-5.755134066E-1,2.497254259E0
1.535807217E1,-4.725982815E-1,2.547491819E0,-5.444880072E-1,2.647551868E0
1.536805417E1,-2.590813547E-1,2.747191483E0,-4.645870113E-1,2.798218234E0
1.537803617E1,-1.564071715E-1,2.866858259E0,-4.297107454E-1,2.903100206E0
1.538801817E1,-1.739090574E-1,2.946248245E0,-3.845982707E-1,2.976329772E0
1.539799917E1,-2.852464753E-1,2.951076876E0,-3.535834694E-1,2.985840175E0
1.540798117E1,-5.138199824E-1,2.820901483E0,-2.844214332E-1,2.881387115E0
1.541796317E1,-8.184277582E-1,2.632538109E0,-1.311892998E-1,2.759944116E0
1.542794517E1,-1.112952011E0,2.414929885E0,6.458140053E-2,2.659834447E0
1.543792717E1,-1.428008761E0,2.120485447E0,2.817399732E-1,2.571972971E0
1.544790817E1,-1.797312469E0,1.783300494E0,4.412064079E-1,2.570049778E0
1.545789017E1,-2.129530213E0,1.487217082E0,6.456016052E-1,2.676474362E0
1.546787217E1,-2.388237931E0,1.311355347E0,9.473062384E-1,2.884566236E0
1.547785417E1,-2.618569695E0,1.192696338E0,1.249434210E0,3.136959937E0
1.548783517E1,-2.782633211E0,1.135805853E0,1.528960208E0,3.372064922E0
1.549781717E1,-2.932884434E0,1.134238799E0,1.814719630E0,3.630635770E0
1.550779917E1,-3.037596372E0,1.223151560E0,2.094069189E0,3.886929022E0
1.551778117E1,-2.971643872E0,1.403474721E0,2.352608360E0,4.041679687E0
1.552776317E1,-2.841097766E0,1.597273082E0,2.618251022E0,4.180712407E0
1.553774417E1,-2.612641788E0,1.730229118E0,2.821846393E0,4.216919134E0
1.554772617E1,-2.256624123E0,1.802810022E0,2.859276760E0,4.064226863E0
1.555770817E1,-1.894644637E0,1.772377311E0,2.693784184E0,3.739983003E0
1.556769017E1,-1.612467949E0,1.703362624E0,2.407370020E0,3.361090230E0
1.557767117E1,-1.283719359E0,1.639376836E0,2.084160497E0,2.946051049E0
1.558765317E1,-6.444035107E-1,1.561345743E0,1.694479827E0,2.392554764E0
1.559763517E1,7.546416521E-3,1.260825756E0,1.365395168E0,1.858505447E0
1.560761717E1,5.626015484E-1,8.571585453E-1,9.695794523E-1,1.411143362E0
1.561759917E1,1.226964530E0,6.011583808E-1,6.736343265E-1,1.523357004E0
1.562758017E1,1.920796893E0,3.721118340E-1,4.842592375E-1,2.015548295E0
1.563756217E1,2.375177005E0,1.681860951E-1,2.426020007E-1,2.393451085E0
1.564754417E1,2.659724738E0,9.594637692E-2,-1.289298626E-1,2.664575820E0
1.565752617E1,2.899979813E0,1.098802918E-1,-5.329514142E-1,2.950592110E0
1.566750717E1,3.130227962E0,1.302701175E-1,-7.522793039E-1,3.221990309E0
1.567748917E1,3.269700428E0,1.819057095E-1,-8.630828711E-1,3.386582734E0
1.568747117E1,3.270651770E0,2.148243642E-1,-9.385657474E-1,3.409430769E0
1.569745317E1,3.022603526E0,1.639451095E-1,-1.008097474E0,3.190496919E0
1.570743450E1,2.627453955E0,1.918225873E-1,-9.549508882E-1,2.802185110E0
1.571741650E1,2.299615191E0,3.466580272E-1,-7.453947191E-1,2.442133310E0
1.572739850E1,2.073710353E0,5.354236901E-1,-4.886121241E-1,2.196746450E0
1.573738050E1,1.774987215E0,6.114971352E-1,-3.569174787E-1,1.910994099E0
1.574736250E1,1.549720894E0,6.838096511E-1,-4.028509390E-1,1.741125890E0
1.575734350E1,1.491917074E0,7.387249464E-1,-4.606975166E-1,1.727360212E0
1.576732550E1,1.482695430E0,8.292424759E-1,-6.165316609E-1,1.807246555E0
1.577730750E1,1.214817524E0,9.048130605E-1,-9.270514834E-1,1.775920253E0
1.578728950E1,9.871784019E-1,1.067290227E0,-1.348387810E0,1.982871481E0
1.579727050E1,9.252306604E-1,1.223594195E0,-1.809255992E0,2.372054336E0
1.580725250E1,7.622213978E-1,1.345547525E0,-2.299863113E0,2.771434636E0
1.581723450E1,4.632526767E-1,1.476358802E0,-2.725067958E0,3.133725216E0
1.582721650E1,2.330121285E-1,1.608250353E0,-3.089114435E0,3.490471578E0
1.583719850E1,6.212666631E-3,1.737008088E0,-3.283410394E0,3.714568550E0
1.584717950E1,-2.819194096E-1,1.827720914E0,-3.373181527E0,3.846868325E0
1.585716150E1,-7.635446227E-1,1.786104819E0,-3.405548204E0,3.920577685E0
1.586714350E1,-1.352720012E0,1.608807592E0,-3.338649040E0,3.945211112E0
1.587712550E1,-2.056108480E0,1.244052140E0,-3.191954094E0,3.995474784E0
1.588710650E1,-2.663911929E0,8.927964476E-1,-2.949194072E0,4.073236789E0
1.589708850E1,-3.103029639E0,6.657034555E-1,-2.630819027E0,4.122276408E0
1.590707050E1,-3.407619288E0,6.088685194E-1,-2.249952450E0,4.128544067E0
1.591705250E1,-3.588047406E0,6.014177048E-1,-1.915392312E0,4.111510082E0
1.592703450E1,-3.683255864E0,5.697901154E-1,-1.517402748E0,4.024120480E0
1.593701550E1,-3.651378014E0,5.882854432E-1,-1.015011148E0,3.835216916E0
1.594699750E1,-3.585812600E0,5.780191943E-1,-4.577749320E-1,3.660835435E0
1.595697950E1,-3.589306896E0,4.485899064E-1,3.727716923E-2,3.617422630E0
1.596696150E1,-3.554569173E0,3.117793858E-1,5.233866850E-1,3.606397373E0
1.597694250E1,-3.415257506E0,2.744387743E-1,9.768768505E-1,3.562806317E0
1.598692450E1,-3.178906617E0,2.973621985E-1,1.318370544E0,3.454268728E0
1.599690650E1,-2.837823910E0,3.968829784E-1,1.533525860E0,3.249994186E0
1.600688850E1,-2.469882018E0,5.205448651E-1,1.610670515E0,2.994251768E0
1.601686950E1,-2.041792742E0,6.910493812E-1,1.565911249E0,2.664309458E0
1.602685150E1,-1.511094772E0,8.617456859E-1,1.294388773E0,2.168283960E0
1.603683350E1,-9.700513226E-1,1.002046117E0,8.013421941E-1,1.608491623E0
1.604681550E1,-4.128450000E-1,1.037560351E0,3.265098377E-1,1.163435065E0
1.605679750E1,1.352665633E-1,9.900879765E-1,-1.042207718E-2,9.993397140E-1
1.606677850E1,4.737864357E-1,7.852883711E-1,-3.468871649E-1,9.805519455E-1
1.607676050E1,6.994737571E-1,5.606427312E-1,-5.514684498E-1,1.052473876E0
1.608674250E1,8.642073637E-1,3.060765964E-1,-6.471020738E-1,1.122175719E0
1.609672450E1,8.574058825E-1,-4.944727153E-2,-7.202518380E-1,1.120871353E0
1.610670550E1,7.177872366E-1,-4.223838553E-1,-7.639539278E-1,1.130155849E0
1.611668750E1,5.242362124E-1,-7.266434294E-1,-6.952841540E-1,1.134131533E0
1.612666950E1,3.481443894E-1,-9.783137307E-1,-5.284280813E-1,1.165134545E0
1.613665150E1,2.066458637E-1,-1.202204495E0,-3.107526147E-1,1.258795197E0
1.614663350E1,7.102963686E-2,-1.434798255E0,-6.480235219E-2,1.438016199E0
1.615661450E1,-7.144595861E-2,-1.557294500E0,2.195534460E-1,1.574317122E0
1.616659650E1,-1.396168917E-1,-1.485630878E0,5.100325947E-1,1.576935392E0
1.617657850E1,-1.194679713E-1,-1.327827099E0,7.925140679E-1,1.550959687E0
1.618656050E1,-8.677501917E-2,-1.153597322E0,1.032503825E0,1.550606602E0
1.619654150E1,-1.140698218E-1,-1.021716735E0,1.262430232E0,1.628080803E0
1.620652350E1,-1.689424324E-1,-9.077856387E-1,1.462818990E0,1.729871587E0
1.621650550E1,-2.360608667E-1,-7.743239647E-1,1.596366033E0,1.789884590E0
1.622648750E1,-2.360357237E-1,-7.297871849E-1,1.770028338E0,1.929067784E0
1.623646950E1,-1.483380139E-1,-7.434503737E-1,1.916961704E0,2.061423004E0
1.624645050E1,-7.623015046E-3,-8.574000353E-1,2.057955908E0,2.229433885E0
1.625643250E1,1.804433209E-1,-1.044042136E0,2.168752458E0,2.413725543E0
1.626641450E1,3.848438537E-1,-1.233179389E0,2.275614710E0,2.616726678E0
1.627639650E1,5.748479569E-1,-1.405486456E0,2.370202925E0,2.814907504E0
1.628637750E1,7.521109772E-1,-1.516510317E0,2.430656118E0,2.962020193E0
1.629635950E1,9.112593234E-1,-1.586806566E0,2.453259261E0,3.060527673E0
1.630634150E1,1.090622663E0,-1.670435784E0,2.436131451E0,3.148737834E0
1.631632350E1,1.239335484E0,-1.699457708E0,2.350134988E0,3.153925079E0
1.632630450E1,1.314290357E0,-1.777673426E0,2.126599588E0,3.067557296E0
1.633628650E1,1.361458091E0,-1.850909802E0,1.881886450E0,2.970005361E0
1.634626850E1,1.446250904E0,-1.876833871E0,1.713526108E0,2.924092814E0
1.635625050E1,1.520575447E0,-1.941401750E0,1.514009024E0,2.893685154E0
1.636623250E1,1.589925764E0,-2.030874236E0,1.339159588E0,2.906142202E0
