Time (s),Acceleration x (m/s^2),Acceleration y (m/s^2),Acceleration z (m/s^2),Absolute acceleration (m/s^2)
0.00175920833135024,-3.38985076904297,7.07339080810547,8.0806462097168,11.2614736569946
0.0117832083196845,-2.85052230834961,6.89451278686524,8.4066682434082,11.2397444345223
0.0218072083371226,-2.40130645751953,5.9589582824707,8.1572868347168,10.3834861688643
0.0318312083254568,-2.46267883300781,5.19913833618164,8.1382763671875,9.96631168998948
0.0418552083428949,-2.31792984008789,5.57560546875,8.16656753540039,10.1564265564706
0.0518792083312292,-2.14429092407227,6.27450210571289,7.74234970092773,10.1936911436981
0.0619022083410528,-2.12168792724609,6.37329666137695,7.49940490722656,10.0678470368334
0.071926208329387,-2.01930084228516,6.02063003540039,7.69145553588867,9.97416914712054
0.0819502083177213,-1.86976181030273,5.71780975341797,7.77647872924805,9.83173326682511
0.0919742083351594,-1.6908837890625,5.66287399291992,7.49117202758789,9.54174450479148
0.101998208323494,-1.62142822265625,5.64116912841797,7.12982345581055,9.2350528492082
0.112022208340932,-1.68010620117188,5.59850784301758,7.0507878112793,9.15858371557689
0.122046208329266,-1.72845565795898,5.6523957824707,7.02938232421875,9.1841903782131
0.1320702083176,-1.69657196044922,5.52650756835938,6.8737060546875,8.98156318501204
0.142093208327424,-1.59059234619141,5.27667709350586,6.94645477294922,8.86716071093341
0.152117208344862,-1.4416520690918,5.18132537841797,6.95738204956055,8.79372835314476
0.162141208333196,-1.3076806640625,5.20228179931641,7.01396438598633,8.83003176928295
0.17216520832153,-1.15275283813477,5.18222351074219,7.27951217651367,9.00974900588955
0.182189208338968,-1.08614135742188,5.21695129394531,7.52140914916992,9.21780231079605
0.192213208327303,-1.16353042602539,5.3025732421875,7.63651977539063,9.3694994701415
0.202237208344741,-1.35842514038086,5.3025732421875,7.78725631713867,9.51861139030257
0.212260208325461,-1.50931137084961,5.27278518676758,7.90970169067383,9.62515793508969
0.222284208342899,-1.5614030456543,5.20437744140625,7.91389297485352,9.5996471831538
0.232308208331233,-1.59298736572266,5.13761627197266,7.89473281860352,9.55298466357639
0.242332208319567,-1.70675079345703,5.15602798461914,8.01687881469727,9.68338622480193
0.252356208337005,-1.84700912475586,5.23715927124024,8.1480061340332,9.86049105772687
0.26238020832534,-1.90074737548828,5.23296798706055,8.25952423095703,9.96074972383066
0.272404208342778,-1.92604476928711,5.11172012329102,8.4301693725586,10.0452519491639
0.282428208331112,-1.88038970947266,4.96412704467774,8.58494750976563,10.0935497482611
0.292451208340935,-1.77530822753906,4.79333221435547,8.75424545288086,10.137285951833
0.30247520832927,-1.66618515014648,4.72537353515625,8.90423355102539,10.2171768670475
0.312499208317604,-1.69432662963867,4.82551528930664,9.13325729370117,10.4676993330999
0.322523208335042,-1.9496955871582,4.87117034912109,9.41661804199219,10.7797174731768
0.332547208323376,-2.29203369140625,4.79842163085938,9.62872695922852,10.9995750574927
0.342571208340814,-2.52150650024414,4.67223403930664,9.21843017578125,10.6380083123949
0.352595208329149,-2.63541961669922,4.33288970947266,8.87279891967773,10.2198791802825
0.362619208317483,-2.69873794555664,3.72485412597656,8.6409310913086,9.7889435018972
0.372643208334921,-2.78046798706055,3.08074356079102,8.40038131713867,9.36954584746541
0.382666208344745,-2.83031433105469,2.65218475341797,8.03888305664063,8.92571588037509
0.392690208333079,-2.81354919433594,2.51641708374023,7.54221588134766,8.4340639320046
0.402714208321413,-2.72193969726563,2.59679992675781,7.52200790405273,8.41028706310264
0.412738208338851,-2.61131973266602,2.71565277099609,7.55329284667969,8.44073418290922
0.422762208327185,-2.51806365966797,2.94347900390625,7.55987915039063,8.49449739590803
0.432786208344623,-2.38469100952148,3.20588333129883,7.72438705444336,8.69658522131787
0.442810208332958,-2.20790863037109,3.34314788818359,7.87886581420899,8.83900587400215
0.452834208321292,-2.0835173034668,3.40212524414063,7.99203048706055,8.9324157895146
0.46285820833873,-1.98232772827148,3.34494415283203,8.23976531982422,9.11109253238145
0.47288120831945,-2.00014068603516,3.324287109375,8.62371688842774,9.45621174261891
0.482905208336888,-2.01750457763672,3.30243255615234,8.95183456420899,9.75252416421957
0.492929208325222,-1.92020690917969,3.1852262878418,9.23354873657227,9.95446047505716
0.50295320834266,-1.68654281616211,3.03913009643555,9.50882629394531,10.1241550710286
0.512977208330995,-1.4130615234375,2.88944137573242,9.62094314575195,10.1443659903715
0.523001208319329,-1.1255094909668,2.79094619750977,9.6374089050293,10.0963261978993
0.533025208336767,-0.873882751464844,2.7927424621582,9.58097625732422,10.017893369699
0.543049208325101,-0.67779052734375,2.86174896240234,9.51631072998047,9.96038036584493
0.553073208342539,-0.590821380615234,2.92566604614258,9.50463500976563,9.96226271417322
0.563096208323259,-0.591120758056641,2.96473480224609,9.48682205200195,9.95685034760517
0.573120208340697,-0.622555389404297,3.09526336669922,9.38323745727539,9.90017048851799
0.583144208329031,-0.604592742919922,3.25198745727539,9.23938659667969,9.81362417713111
0.593168208317366,-0.457149353027344,3.30587539672852,9.09942764282227,9.69212985347525
0.603192208334804,-0.244441680908203,3.29614562988281,9.01560195922852,9.60236462731997
0.613216208323138,0.00149688720703125,3.32832870483398,9.12936538696289,9.71715424271784
0.623240208340576,0.259859619140625,3.42847045898438,9.37530395507813,9.98590311188187
0.63326420832891,0.527353363037109,3.63324462890625,9.62229034423828,10.2988853557948
0.643288208317244,0.612825622558594,3.73009323120117,10.2675984191895,10.9413311829438
0.653312208334683,0.474962310791016,3.66123641967773,10.9896968078613,11.5932599921749
0.663335208344506,0.231418762207031,3.61438385009766,11.389216003418,11.9512161068178
0.67335920833284,-0.00493972778320313,3.59522369384766,11.4682516479492,12.0185878401085
0.683383208321175,-0.0871188354492188,3.47352676391602,11.2079429626465,11.7341792778646
0.693407208338613,-0.102387084960938,3.28656555175781,10.7534880065918,11.244976680682
0.703431208326947,-0.0745449829101563,3.08508453369141,10.3497775268555,10.8000554808715
0.713455208344385,0.0296383666992188,2.87686752319336,9.95908996582031,10.3663261634047
0.723479208332719,0.124690704345703,2.68960693359375,9.61959594726563,9.9893022487877
0.733503208321054,0.138162689208984,2.55997650146484,9.41018142700195,9.75315759668807
0.743527208338492,-0.00344284057617188,2.48258743286133,9.15136962890625,9.4821315272369
0.753551208326826,-0.387244720458984,2.39202575683594,8.86217102050781,9.18748174918559
0.76357420833665,-0.812061309814453,2.3661296081543,8.88986343383789,9.23513317531318
0.773598666652106,-1.19047439575195,2.40145614624023,8.96141464233399,9.35367164813336
0.783622666669544,-1.62891265869141,2.48632965087891,8.95886993408203,9.43909646514346
0.793646666657878,-1.94595336914063,2.60293716430664,8.88282806396484,9.45868124054088
0.803670666675316,-2.02813247680664,2.62374389648438,8.82130599975586,9.42405395353537
0.81369466666365,-2.13875244140625,2.74618927001953,8.79840362548828,9.46190910278665
0.823718666651985,-2.18036590576172,3.11157943725586,8.96276184082031,9.73483548359326
0.833742666669423,-2.06241119384766,3.39508987426758,9.16738632202149,9.99105335608058
0.843766666657757,-1.83338745117188,3.43146423339844,9.28923294067383,10.0710528226848
0.853790666675195,-1.61499160766602,3.29644500732422,9.35434753417969,10.0488091518029
0.863814666663529,-1.48610961914063,3.16232391357422,9.37365737915039,10.0037126606159
0.873837666673353,-1.51275421142578,3.07295974731445,9.49804870605469,10.0967537424357
0.883861666661687,-1.71827682495117,2.98554153442383,9.73380844116211,10.3253552127843
0.893885666650021,-1.94864776611328,2.92312133789063,9.91328521728516,10.5173708821004
0.90390966666746,-2.06495590209961,3.04347106933594,10.0554895019531,10.7069896867136
0.913933666655794,-2.03052749633789,3.12505142211914,9.78754669189453,10.4730634749479
0.923957666673232,-1.85135009765625,3.132685546875,9.00961441040039,9.71670560137466
0.933981666661566,-1.61723693847656,3.23701858520508,8.47986602783203,9.21964600655122
0.9440056666499,-1.49299530029297,3.48580123901367,8.49184112548828,9.30006510434955
0.954029666667339,-1.55631362915039,3.81182327270508,8.76681930541992,9.68551648124656
0.964053666655673,-1.85000289916992,4.14248565673828,8.99299896240235,10.072573081442
0.974077666673111,-2.32242050170898,4.45159286499024,8.92129806518555,10.2371810177545
0.984100666653831,-2.5864714050293,4.68585571289063,8.62850692749024,10.153728866225
0.994124666671269,-2.40040832519531,4.7949787902832,8.48151260375977,10.034432608507
1.0041486666596,-2.05163360595703,4.67103652954102,8.46444808959961,9.88304933585406
1.01417266667704,-1.77276351928711,4.39096893310547,8.55321350097656,9.77654130355415
1.02419666666538,-1.55781051635742,4.23798706054688,8.48585357666016,9.61233680510377
1.03422066665371,-1.33462463378906,4.3445654296875,8.3539778137207,9.51027954363541
1.04424466667115,-1.06204147338867,4.56640411376953,8.10384796142578,9.3622823287569
1.05426866665948,-0.914298706054688,4.6749284362793,7.84159332275391,9.17504680356916
1.06429266667692,-0.968935089111328,4.4641667175293,7.82333129882813,9.05936710261988
1.07431666666525,-1.14152618408203,4.04279296875,7.92182647705078,8.9667492297723
1.08434066665359,-1.34420471191406,3.53130661010742,7.83231262207031,8.69609876277646
1.09436466667103,-1.56739059448242,2.89063888549805,7.48967514038086,8.17971516316213
1.10438766665175,-1.4659016418457,2.74244705200195,7.62948440551758,8.23886616899656
1.11441166666918,-1.08659042358398,2.72418502807617,7.48518447875977,8.03926921410677
1.12443566665752,-0.825832672119141,2.26928100585938,6.67357223510742,7.09705588699217
1.13445966667496,0.177830200195313,2.21404586791992,5.02564910888672,5.49461296644347
1.14448366666329,12.3481219482422,10.6397245788574,-3.19211196899414,16.6093176736794
1.15450766665163,3.90612716674805,11.4827714538574,18.8785917663574,22.4390975038015
1.16453166666906,0.0914598083496094,8.83013763427734,31.0214904785156,32.253876775443
1.1745556666574,-0.923878784179688,8.41475143432617,11.4245425415039,14.219063470988
1.18457966667484,-4.44485687255859,4.53481979370117,5.12429397583008,8.15964042894071
1.19460366666317,-5.76451263427734,1.31411727905273,5.13073059082031,7.82821221796059
1.2046276666515,-4.88748641967773,-1.62202697753906,4.42434951782227,6.78920935560636
1.21465166666894,-2.84573226928711,-3.34210006713867,5.44747192382813,6.99591133220869
1.22467566665728,-2.93120452880859,-3.69746109008789,6.71129379272461,8.20394069180695
1.23469966667471,-2.00732574462891,-3.08418640136719,8.48106353759766,9.24499870915063
1.24472266665543,-2.2227278137207,-2.70921615600586,16.3747485351563,16.7455295736938
1.25474666667287,-2.37915252685547,-0.934806060791016,9.07143585205078,9.42471100539463
1.26477066666121,-1.64058837890625,1.51529891967773,11.4077774047852,11.6243299317468
1.27479466667864,0.590821380615234,2.97700927734375,15.5634356689453,15.8566132563856
1.28481866666698,0.776435394287109,3.76437194824219,11.1884834289551,11.8302793511488
1.29484266665531,0.732426910400391,4.27076889038086,9.05586822509766,10.0391566082245
1.30486666667275,0.426463165283203,4.19697235107422,9.73171279907227,10.6067281359829
1.31489066666109,-0.172291717529297,3.91705444335938,11.6668885803223,12.3080985165794
1.32491466667852,-0.489781494140625,4.20340896606445,12.2457348632813,12.9563326288644
1.33493866666686,-0.395477600097656,5.30601608276367,10.8828190612793,12.1138746866257
1.34496266665519,0.628243560791016,6.70725219726563,10.9967321777344,12.8961250225879
1.35498666667263,1.02417022705078,6.68390075683594,11.5880026245117,13.4166038477291
1.36501066666096,-0.567170562744141,5.64072006225586,10.4824017333984,11.91722079045
1.3750346666784,-1.91017776489258,4.40908126831055,12.4448208618164,13.3402527339911
1.38505766665912,-3.75763595581055,3.08149200439453,15.581248626709,16.3214806226907
1.39508166667656,-6.5481330871582,-0.0484991455078125,18.8413192749023,19.9468220805485
1.40510566666489,-7.28804443359375,-1.56454650878906,21.0561135864258,22.3365914321918
1.41512966665323,-7.15242645263672,-1.36201766967773,20.9676475524902,22.1958225839535
1.42515366667067,-6.23513397216797,-1.0108479309082,23.0201792907715,23.871057030839
1.435177666659,-3.53714447021484,1.49838409423828,30.0260604858398,30.2707920972734
1.44520166667644,-5.3838542175293,2.75981094360352,27.1135670471191,27.78035206218
1.45522566666477,-6.28138778686524,1.1449690246582,23.1339427185059,23.9988768966282
1.46524966665311,-4.88943237304688,0.0793350219726563,19.3959159851074,20.0028597924811
1.47527366667055,-2.29817092895508,0.599653015136719,16.1853923034668,16.3587315331715
1.48529766665888,-0.238005065917969,0.879121856689453,12.0827238464355,12.1170011636351
1.49532166667632,-0.722397766113281,0.788410491943359,7.93410095214844,8.00583584363148
1.50534566666465,-0.44068359375,2.22841598510742,7.13820602416992,7.49092952015826
1.51536966665299,-0.805325317382813,3.48804656982422,6.79092819213867,7.67670003653028
1.52539366667042,-1.65540756225586,4.10147094726563,8.28766571044922,9.39403220436217
1.53541766665876,-1.49823440551758,3.29614562988281,9.20705383300781,9.89338782375259
1.54544066666858,-1.18598373413086,1.74911270141602,6.78314437866211,7.10471676575873
1.55546466665692,-0.518671417236328,1.09946365356445,5.16890121459961,5.30993221527889
1.56548866667436,0.662522277832031,0.936003570556641,3.21471496582031,3.41312624498239
1.57551266666269,1.45467498779297,0.7232958984375,0.640068969726563,1.74611699574049
1.58553666665102,2.27212509155273,0.520767059326172,-1.44838806152344,2.74437219387356
1.59556066666846,2.921923828125,-0.0187110900878906,-2.45639190673828,3.81730928295655
1.6055846666568,3.16247360229492,-1.07042404174805,-2.96757888793945,4.46694206034827
1.61560866667423,3.51723587036133,-1.84027313232422,-3.38461166381836,5.21662242108494
1.62563266666257,3.57636291503906,-1.8823356628418,-3.37263656616211,5.2638613825866
1.6356566666509,3.77290420532227,-2.68137405395508,-3.6884797668457,5.91856874169694
1.64568066666834,3.88786514282227,-3.37278625488281,-4.10356658935547,6.58258621236162
1.65570466665667,3.95956604003906,-3.00859359741211,-3.80508728027344,6.26166813798995
1.66572866667411,4.09608215332031,-2.10043212890625,-2.81714172363281,5.39685015781647
1.67575266666245,3.69087478637695,-1.13179641723633,-1.76318344116211,4.24409421030806
1.68577666665078,2.77298355102539,-0.314046936035156,-1.01503921508789,2.96957368328464
1.69580066666822,1.35124008178711,0.732726287841797,0.176333312988281,1.54720102404047
1.70582466665655,0.0487985229492188,2.21329742431641,1.1159294128418,2.47918640662075
1.71584866667399,-0.743054809570313,3.50106948852539,1.66693359375,3.94820030133747
1.72587166665471,-1.34704879760742,3.81152389526367,1.99430282592773,4.50771545561662
1.73589566667215,-2.20701049804688,3.44807968139648,2.42495727539063,4.75821044251075
1.74591966666048,-3.26396255493164,3.46155166625977,3.26845321655273,5.77222469477545
1.75594366667792,-4.27301422119141,4.22661071777344,4.48003372192383,7.49623844629265
1.76596766666626,-5.31379989624023,5.08447677612305,6.33273101806641,9.70524886705116
1.77599166665459,-6.33213226318359,5.33685195922852,8.98027542114258,12.2156962336475
1.78601566667203,-7.07818084716797,5.10648101806641,12.0120707702637,14.8481189610978
1.79603966666036,-7.53817428588867,4.71699096679688,14.605577545166,17.0996190242103
1.8060636666778,-7.9658349609375,4.49215850830078,16.2945153808594,18.6854287129211
1.81608766666614,-8.38062240600586,4.5455973815918,16.7375939941406,19.2625112635989
1.82611166665447,-8.52402420043945,5.13222747802734,15.9599610900879,18.8074215524887
1.83613566667191,-8.18482955932617,5.69341049194336,15.0158743286133,18.0245066450568
1.84615966666024,-7.64834518432617,5.62290710449219,13.9354211425781,16.8615014392363
1.85618366667768,-6.81383056640625,5.44313095092774,12.9093049621582,15.5790280872281
1.86620766666601,-6.04293365478516,5.20991592407227,12.2428907775879,14.6133037224299
1.87623166665435,-5.46708114624023,4.64304473876953,11.8995048522949,13.8940655114182
1.88625566667179,-4.95529541015625,4.21897659301758,11.5345637512207,13.2438996154954
1.89627966666012,-4.49949325561524,4.09039398193359,11.122470703125,12.6762027842189
1.90630366667756,-4.24846527099609,4.09338775634766,10.706485748291,12.2243248304778
1.91632766666589,-4.12467269897461,4.19023635864258,10.3889959716797,11.9374303312955
1.92635066667572,-4.03231475830078,4.30534698486328,10.0935104370117,11.690788164711
1.93637466666405,-3.8559814453125,4.29906005859375,9.72003707885742,11.3061766795126
1.94639866665239,-3.71961502075195,4.04399047851563,9.39985290527344,10.8879120833017
1.95642266666982,-3.67964813232422,3.60076217651367,9.32545761108399,10.6522043862129
1.96644666665816,-3.63040054321289,3.29240341186523,9.46137496948242,10.6553904031608
1.9764706666756,-3.64896194458008,3.19750076293945,9.50523376464844,10.6718509792165
1.98649466666393,-3.72575225830078,3.18462753295898,9.49625244140625,10.6865285684748
1.99651866665226,-3.80433883666992,3.1662158203125,9.38772811889649,10.6126036314993
2.0065426666697,-3.8992414855957,3.11307632446289,9.26902496337891,10.5266401162319
2.01656666665804,-3.97348709106445,3.09391616821289,9.21319107055664,10.4997050730661
2.02659066667547,-4.00626892089844,2.98284713745117,9.17816390991211,10.449222960066
2.03661466666381,-4.00971176147461,2.82402740478516,9.10975616455078,10.3460415894513
2.04663866665214,-3.98740814208984,2.65877105712891,9.03266647338867,10.2253386665338
2.05666266666958,-3.94983627319336,2.4954606628418,8.98835861206055,10.1301096264467
2.06668666665792,-3.87873413085938,2.44576400756836,8.94899047851563,10.0553851553868
2.07671066667535,-3.83248031616211,2.46731918334961,8.95857055664063,10.0514454554857
2.08673466666369,-3.76048004150391,2.45459564208984,8.91695709228516,9.98390573344772
2.09675866665202,-3.62695770263672,2.39846237182617,8.79211669921875,9.80860642387404
2.10678266666946,-3.5591487121582,2.32122299194336,8.76232864379883,9.73827597655362
2.11680666665779,-3.52501968383789,2.29861999511719,8.84166366577149,9.79205974409985
2.12683066667523,-3.50900299072266,2.29832061767578,8.95991775512695,9.89320503321211
2.13685466666357,-3.48041244506836,2.32885711669922,8.9575227355957,9.88807664900011
2.1468786666519,-3.40781341552734,2.38244567871094,8.8281916809082,9.7583916729097
2.15690266666934,-3.36320617675781,2.39457046508789,8.69212463378906,9.62279346910115
2.16692666665767,-3.24510177612305,2.38903198242188,8.63045288085938,9.52485570909951
2.17695066667511,-3.16576675415039,2.34307754516602,8.63434478759766,9.49020555285606
2.18697366665583,-3.10948379516602,2.16075668334961,8.75918518066406,9.54259314579664
2.19699766667327,-3.09661056518555,2.03756286621094,8.95378051757813,9.69076080517635
2.2070216666616,-3.13118865966797,2.12348419189453,9.02233795166016,9.78346102612089
2.21704566664994,-3.17968780517578,2.22197937011719,9.13684982299805,9.92620932418964
2.22706966666738,-3.29045745849609,2.1986279296875,9.39461380004883,10.1941082744614
2.23709366665571,-3.35332672119141,2.14908096313477,9.58127563476563,10.3761356908301
2.24711766667315,-3.33626220703125,2.11270660400391,9.60732147216797,10.3872422027334
2.25714166666148,-3.30363006591797,2.10058181762695,9.54460189819336,10.3162900783168
2.26716566664982,-3.24195831298828,2.18380874633789,9.47320037841797,10.2479675913517
2.27718966666725,-3.25078994750977,2.33469497680664,9.39057220458984,10.2079029309243
2.28721366665559,-3.26081909179688,2.43438766479492,9.36856796264649,10.2141690862575
2.29723766667303,-3.35991302490234,2.46552291870117,9.41766586303711,10.2985556805488
2.30726166666136,-3.45616287231445,2.50444198608398,9.44655578613281,10.3660362570341
2.3172856666497,-3.45691131591797,2.60667938232422,9.41571990966797,10.3634354663728
2.32730966666713,-3.40706497192383,2.65712448120117,9.36317916870117,10.312008842932
2.33733366665547,-3.32264053344727,2.5722509765625,9.28638885498047,10.1928128191799
2.34735766667291,-3.21172119140625,2.47375579833984,9.15451309204102,10.0119793604211
2.35738166666124,-3.09586212158203,2.48318618774414,9.00706970214844,9.8426561729144
2.36740566664957,-3.00455200195313,2.49875381469727,8.94614639282227,9.76240946901489
2.37742966666701,-3.05350021362305,2.49141906738281,8.88836654663086,9.72286441287655
2.38745366665535,-3.1136750793457,2.53093688964844,8.95123580932617,9.80944629188034
2.39747766667279,-3.16007858276367,2.57629257202148,9.05526947021484,9.93082500319584
2.40750166666112,-3.12849426269531,2.54036727905273,9.08924880981445,9.94260459793674
2.41752566667856,-3.06457717895508,2.45309875488281,9.11020523071289,9.91993780891233
2.42754966666689,-2.98673904418945,2.32451614379883,9.14104110717774,9.89356447110849
2.43757366665523,-2.88899230957031,2.2083576965332,9.11963562011719,9.81788542020654
2.44759766667266,-2.91458908081055,2.1125569152832,9.07547744750977,9.76329950019712
2.457621666661,-2.96174102783203,2.1315673828125,9.03745651245117,9.74633826818358
2.46764566667844,-2.96114227294922,2.24293579101563,9.02847518920899,9.76281151950748
2.47766966666677,-2.99407379150391,2.25925186157227,9.04419250488281,9.79112429235615
2.4876936666551,-3.04212387084961,2.24922271728516,9.05482040405274,9.81342412347466
2.49771766667254,-3.00694702148438,2.31284042358398,8.99943557739258,9.76630953465111
2.50774166666088,-2.98269744873047,2.32676147460938,8.98192199707031,9.74603641445307
2.51776566667832,-2.98194900512695,2.23051162719727,9.08805130004883,9.82139900526188
2.52778966666665,-2.97805709838867,2.10028244018555,9.16843414306641,9.8661134721612
2.53781366665498,-2.93285110473633,2.00328414916992,9.2112451171875,9.87227428679831
2.54783766667242,-2.92267227172852,1.92499694824219,9.24836791992188,9.88837376118604
2.55786166666076,-2.941083984375,1.8970051574707,9.28174850463867,9.91965013868835
2.56788566667819,-2.96323791503906,1.90883056640625,9.26438461303711,9.9122770002987
2.57790966666653,-2.94198211669922,1.92050628662109,9.23369842529297,9.87951364092317
2.58793366665486,-2.92491760253906,1.96990356445313,9.18879180908203,9.84223338198912
2.59795666666469,-2.93374923706055,2.05881866455078,9.11484558105469,9.79418341904664
2.60798066665302,-2.92581573486328,2.16360076904297,8.99374740600586,9.70201311095867
2.61800466667046,-2.92147476196289,2.29891937255859,8.90947265625,9.65394986929069
2.62802866665879,-2.91967849731445,2.404599609375,8.93656631469727,9.70406303081697
2.63805266667623,-2.92252258300781,2.39082824707031,8.99210083007813,9.75269579621305
2.64807666666457,-2.88674697875977,2.27856170654297,9.0865544128418,9.80258244889771
2.6581006666529,-2.85082168579102,2.14758407592773,9.1296647644043,9.80255478728684
2.66812466667034,-2.84094223022461,2.07214096069336,9.14777709960938,9.80033401372599
2.67814866665867,-2.84243911743164,2.05432800292969,9.09972702026367,9.75216670915974
2.68817266667611,-2.95740005493164,2.06615341186523,9.0099137878418,9.70534654047004
2.69819666666444,-3.10274780273438,2.23290664672852,8.94614639282227,9.72864077362219
2.70822066665278,-3.21995407104492,2.44232116699219,8.97099472045898,9.83929790060652
2.71824466667022,-3.32129333496094,2.51117797851563,9.02158950805664,9.93609991437865
2.72826866665855,-3.32802932739258,2.43333984375,9.07083709716797,9.9637848051092
2.73829266667599,-3.25872344970703,2.3182292175293,9.10646301269531,9.94591040721083
2.74831666666432,-3.18612442016602,2.2275178527832,9.15211807250977,9.94356524685216
2.75834066665266,-3.11157943725586,2.16300201416016,9.2591455078125,10.0046129281676
2.76836454166914,-3.06308029174805,2.10582092285156,9.25001449584961,9.96893729573231
2.77838854165748,-2.9891340637207,2.09040298461914,9.11245056152344,9.81536868004503
2.78841254167492,-2.91578659057617,2.15940948486328,8.91111923217773,9.62148152496221
2.79843654166325,-2.86249740600586,2.26179656982422,8.72790023803711,9.45969649025735
2.80846054165158,-2.82537460327148,2.37002151489258,8.60889770507813,9.36551457883466
2.81848454166902,-2.8547135925293,2.44022552490234,8.66652786254883,9.44525253765571
2.82850854165736,-3.00155822753906,2.44531494140625,8.82235382080078,9.63446126648347
2.83853254167479,-3.03134628295898,2.44995529174805,8.99629211425781,9.80431604059308
2.84855654166313,-3.04062698364258,2.32601303100586,9.10466674804688,9.87677607658769
2.85858054165146,-3.0273046875,2.11165878295898,9.21349044799805,9.92532532071159
2.8686045416689,-3.00515075683594,1.98681838989258,9.28923294067383,9.96334416809069
2.87862854165724,-2.98284713745117,1.93308013916016,9.34386932373047,9.99710307082844
2.88865254167467,-3.00589920043945,1.9305354309082,9.35599411010742,10.0148401306041
2.89867654166301,-3.02416122436523,2.0263362121582,9.3359358215332,10.0205432596963
2.90870054165134,-3.01473083496094,2.174677734375,9.31722473144531,10.0313758753177
2.91872454166878,-3.00559982299805,2.26209594726563,9.28459259033203,10.0177027276262
2.92874854165711,-2.97296768188477,2.29996719360352,9.25764862060547,9.99161868326559
2.93877254167455,-2.92806106567383,2.25086929321289,9.20675445556641,9.9198932345331
2.94879654166289,-2.83615219116211,2.15342193603516,9.16050064086914,9.82831406078352
2.95882054165122,-2.82582366943359,2.0454963684082,9.18220550537109,9.82253698118615
2.96884454166866,-2.84917510986328,1.99804504394531,9.28638885498047,9.91700563528146
2.97886854165699,-2.82657211303711,2.01705551147461,9.34596496582031,9.9702098267243
2.98889254167443,-2.77717483520508,2.02588714599609,9.36362823486328,9.97469059742393
2.99891654166277,-2.79468841552734,2.040556640625,9.31108749389649,9.93330282748276
3.0089405416511,-2.83450561523438,2.04235290527344,9.1539143371582,9.79794749753766
3.01896454166854,-2.87671783447266,2.08666076660156,9.091494140625,9.76139971331294
3.02898854165687,-2.94677215576172,2.12318481445313,9.15675842285156,9.85076670664573
3.03901254167431,-2.99497192382813,2.11001220703125,9.2637858581543,9.96191431222329
3.04903654166264,-3.01263519287109,2.09983337402344,9.35584442138672,10.0507261350204
3.05906054165098,-3.02520904541016,2.10537185668945,9.31153656005859,10.0144492376106
3.06908454166842,-2.93584487915039,2.1317170715332,9.24312881469727,9.92969451255106
3.07910854165675,-2.9121940612793,2.09564208984375,9.14193923950195,9.82077609346739
3.08913254167419,-2.83914596557617,2.04355041503906,9.01724853515625,9.67200182265447
3.09915654166252,-2.7640022277832,2.04100570678711,8.91995086669922,9.55881457476063
3.10918054165086,-2.72972351074219,2.06974594116211,8.8808821105957,9.51868193440428
3.1192045416683,-2.80157409667969,2.08007446289063,8.9045329284668,9.56379808781563
3.12922854165663,-2.88929168701172,2.05657333374023,9.02548141479492,9.69725812271154
3.13925254167407,-2.90680526733398,2.03905975341797,9.26258834838867,9.91981977920542
3.1492765416624,-2.97656021118164,1.95643157958984,9.49580337524414,10.1418842902936
3.15930054165074,-3.05439834594727,1.7916242980957,9.85146377563477,10.4685531666939
3.16932454166818,-3.04047729492188,1.65495849609375,9.9869320678711,10.5698723707054
3.17934854165651,-3.01353332519531,1.63100830078125,9.84682342529297,10.4260012827631
3.18937254167395,-2.94781997680664,1.67381927490234,9.7094091796875,10.2841596739498
3.19939654166228,-2.83480499267578,1.74552017211914,9.45972839355469,10.0284306497876
3.20942054165062,-2.66026794433594,1.8538948059082,9.42559936523438,9.96774171419692
3.21944454166805,-2.51596801757813,1.95792846679688,9.58636505126953,10.1025726348674
3.22946854165639,-2.48977249145508,1.93727142333984,9.37455551147461,9.89112120361562
3.23949254167383,-2.07288940429688,1.60810592651367,9.98094451904297,10.3199868529736
3.24951654166216,-1.15829132080078,1.17745147705078,11.2700637817383,11.3904507553082
3.25954054165049,-1.42024658203125,0.577499084472656,9.57453964233399,9.69651560659618
3.26956454166793,-1.23792572021484,0.317789154052734,8.71113510131836,8.80439235771691
3.27958854165627,-1.60735748291016,-0.164358215332031,7.88410491943359,8.04796384692746
3.28961254167371,-1.06009552001953,-0.398171997070313,8.08902877807617,8.16790854646163
3.29963654166204,-1.58011413574219,0.0803828430175781,9.30180679321289,9.43540310223603
3.30966054165037,-2.21733901977539,1.58625137329102,9.70866073608399,10.0841895577317
3.31968454166781,-0.894240417480469,2.25491088867188,10.3488793945313,10.6293741002309
3.32970854165615,-0.235011291503906,2.23919357299805,10.5740112304688,10.811055992204
3.33973254167358,-0.803828430175781,1.87470153808594,11.0446325683594,11.2314092870007
3.34975654166192,-0.897982635498047,0.954265594482422,11.7770594787598,11.8497310351212
3.35978054165025,-0.594862976074219,0.553848266601563,12.5127795410156,12.5391491619161
3.36980454166769,-0.712967376708984,0.2682421875,12.8566145324707,12.8791619909039
3.37982854165602,-1.07955505371094,-0.550704803466797,12.1237385559082,12.1841598588729
3.38985254167346,-0.913250885009766,-0.984203338623047,11.4190040588379,11.4976665931172
3.3998765416618,-0.544417877197266,-0.935853881835938,10.7189099121094,10.7734508407045
3.40990054165013,-0.214354248046875,-0.702938232421875,10.1646125793457,10.1911441354957
3.41992454166757,-0.0883163452148438,-0.35685791015625,9.59654388427734,9.6035827620599
3.4299485416559,-0.284109191894531,0.0844244384765625,8.82609603881836,8.83107110180731
3.43997254167334,-0.507295074462891,0.46223876953125,8.07630523681641,8.1054129599213
3.44999654166168,-0.815653839111328,0.688268737792969,7.38354583740234,7.46027842467704
3.46002154165762,-1.35049163818359,0.703836364746094,7.00079177856445,7.16451664942991
3.47004554167506,-2.29128524780273,0.506097564697266,7.39387435913086,7.75728695294971
3.4800695416634,-2.95680130004883,0.51013916015625,7.90191787719727,8.45240924403599
3.49009354165173,-2.80052627563477,0.850381622314453,8.01942352294922,8.53681732055467
3.50011754166917,-2.20386703491211,1.47712829589844,8.81681533813477,9.20734329852453
3.5101415416575,-1.82096328735352,1.87874313354492,9.57334213256836,9.9244376487003
3.52016554167494,-1.75674682617188,1.87574935913086,9.67348388671875,10.0090401925535
3.53018954166328,-1.91197402954102,1.76408157348633,8.9958430480957,9.36444449145411
3.54021354165161,-1.99669784545898,1.80344970703125,8.20788162231445,8.63762431793482
3.55023754166905,-2.07797882080078,1.88652694702148,7.57275238037109,8.07611035808395
3.56026154165738,-2.23859481811523,2.05073547363281,7.26529174804688,7.87408959351787
3.57028554167482,-3.89100860595703,1.94400741577148,11.3302386474609,12.1364500828135
3.58030954166316,-5.35960464477539,1.90134613037109,14.8869923400879,15.9362172421692
3.59033354165149,-4.41881103515625,3.40481964111328,12.0155136108398,13.2473112398406
3.60035754166893,-4.54709426879883,4.071533203125,12.3117475891113,13.7416366423902
3.61038154165726,-3.87963226318359,3.67919906616211,11.2842842102051,12.4869180506107
3.6204055416747,-4.69004699707031,2.10956314086914,18.6423829650879,19.3386979938423
3.63042954166303,-2.41522750854492,2.37945190429688,14.6064756774902,14.9948073345411
3.64045354165137,-2.16210388183594,2.43513610839844,12.1189485168457,12.5488443378756
3.65047754166881,-3.85268829345703,3.80209350585938,13.8683605957031,14.8872612567352
3.66050154165714,-4.51565963745117,5.10797790527344,16.2076959228516,17.5832882979745
3.67052554167458,-2.25326431274414,3.92813140869141,16.8845883178711,17.4813254386223
3.68054954166291,-1.58969421386719,2.84573226928711,15.1681077575684,15.514406620534
3.69057354165125,-2.27706481933594,1.90838150024414,11.938274230957,12.3024117861281
3.70059754166869,-2.05732177734375,2.35969299316406,9.80251556396484,10.2902883972848
3.71062154165702,-1.6527131652832,3.52412155151367,9.09942764282227,9.89699332845595
3.72064554167446,-1.37204681396484,4.92371109008789,10.3544178771973,11.5472686352223
3.73066954166279,-1.18239120483398,6.13379470825195,10.6085893249512,12.3111191184927
3.74069354165113,-1.09527236938477,5.22548355102539,8.62641128540039,10.1449628668644
3.75071754166856,-1.24990081787109,3.19884796142578,5.95162353515625,6.87144111806675
3.7607415416569,-1.20065322875977,2.43184295654297,4.23589141845703,5.02973204554446
3.77076966667664,-0.973425750732422,2.69245101928711,3.49343536376953,4.51674006605259
3.78079366666498,-1.24166793823242,2.89288421630859,4.92790237426758,5.8476268834557
3.79081766665331,-0.4550537109375,2.89348297119141,5.4560041809082,6.19251961696533
3.80084166667075,0.644859008789063,2.54785171508789,4.8138395690918,5.48456405744765
3.81086566665908,1.68504592895508,1.68459686279297,3.94579467773438,4.60939714188926
3.82088966667652,2.70487518310547,1.22056182861328,3.84729949951172,4.85878939372667
3.83091366666486,3.33326843261719,1.31875762939453,4.59634185791016,5.82890715346758
3.84093766665319,3.71033432006836,0.755928039550781,5.2691926574707,6.48863616095088
3.85096166667063,3.98725845336914,0.123193817138672,6.21492599487305,7.38503295945885
3.86098566665896,3.937412109375,0.946481781005859,6.24486373901367,7.44294061508465
3.8710096666764,3.25153839111328,1.06308929443359,5.37636978149414,6.37244166581274
3.88103366666473,2.32451614379883,0.581390991210938,4.2968147277832,4.91975686313229
3.89105766665307,1.73788604736328,0.412542114257813,3.93636428833008,4.32266153198428
3.90108166667051,1.2118798828125,0.455652465820313,4.10162063598633,4.30111193315434
3.91110566665884,0.858764190673828,0.713566131591797,4.31357986450195,4.45574054527137
3.92112966667628,0.746497650146484,1.05276077270508,4.53781356811524,4.71776599305132
3.93115366666461,0.557889862060547,1.2118798828125,4.61610076904297,4.8050265616867
3.94117766665295,0.528550872802734,1.15963851928711,4.48123123168945,4.65892271586725
3.951202666678,0.586630096435547,0.852028198242188,4.43482772827148,4.55387570099244
3.96122666666633,0.490679626464844,0.739462280273438,4.94631408691406,5.02529541481686
3.97125066665467,0.315843200683594,0.667012939453125,5.34164199829102,5.39238374253191
3.98127466667211,0.211510162353516,0.631237335205078,5.76077041625977,5.79910966537014
3.99129866666044,0.0721499633789063,0.749790802001953,6.36850662231445,6.41289860066767
4.00132266667788,-0.185015258789063,1.03809127807617,7.51751724243164,7.5911085908357
4.01134666666621,-0.424666900634766,1.32130233764648,8.28407318115234,8.39952679111462
4.02137066665455,-0.570463714599609,1.59463394165039,8.10085418701172,8.27599690773043
4.03139466667199,-1.08539291381836,2.16584609985352,8.0998063659668,8.45433795585285
4.04141866666032,-2.04295166015625,3.30812072753906,8.1764469909668,9.05381685422224
4.05144266667776,-5.36783752441406,4.43767181396484,14.9021109008789,16.4493015085462
4.06146666666609,-9.3118359375,4.00477203369141,43.4296376037598,44.5968822897146
4.07149066665443,-5.68637512207031,5.6140754699707,21.1650869750977,22.623297992885
4.08151466667187,-5.60524383544922,6.98836761474609,9.69204528808594,13.1981734433209
4.0915386666602,-3.37997131347656,6.24531280517578,13.726755065918,15.4548355783593
4.10156266667764,-2.7208918762207,4.59559341430664,16.3171183776856,17.168898729479
4.11158666666597,-1.8251545715332,3.60061248779297,15.5538555908203,16.0691637379589
4.12161066665431,0.33769775390625,2.80187347412109,12.2785166931152,12.5986708394611
4.13163466667174,6.16657653808594,5.13836471557617,6.53511016845703,10.3507064041166
4.14165866666008,1.93188262939453,2.42256225585938,9.38203994750977,9.88046820519857
4.15168266667752,-0.430055694580078,3.58160202026367,7.04255493164063,7.91267343551933
4.16170666666585,0.124391326904297,8.38331680297852,3.09391616821289,8.9368781505199
4.17173066665418,0.963695983886719,12.3853944396973,4.45787979125977,13.1984619410583
4.18175466667162,2.21239929199219,11.4564262390137,6.80275360107422,13.5063640315999
4.19177866665996,2.21150115966797,7.32696350097656,10.104437713623,12.6757561128456
4.2018026666774,0.686023406982422,3.2190559387207,12.771741027832,13.1890226375402
4.21182666666573,-1.59328674316406,-0.242046661376953,16.3207109069824,16.4000839553193
4.22185066665406,-4.7183381652832,-2.61700790405273,12.595258026123,13.7022614978864
4.2318746666715,-3.03838165283203,-2.53767288208008,8.08663375854492,9.00362106430237
4.24189866665984,0.617615661621094,-2.50294509887695,5.3841535949707,5.96953040093672
4.25192266667727,3.12475204467773,-0.680933990478516,2.8262727355957,4.26796954254342
4.26194666666561,6.17391128540039,3.66812210083008,2.30176345825195,7.54124759733669
4.27197066665394,7.05318283081055,7.39641906738281,3.28955932617188,10.7366476902984
4.28199466667138,5.80118637084961,7.1660481262207,4.22765853881836,10.1429337855221
4.29201966666733,3.82858840942383,5.45675262451172,4.61595108032227,8.10809735941906
4.30204366665566,2.53288284301758,4.65876205444336,5.01576965332031,7.29914409993001
4.3120676666731,1.66349075317383,3.70419708251953,6.78194686889649,7.90462401664848
4.32209166666144,1.32878677368164,3.85822677612305,6.77416305541992,7.90827877905934
4.33211566664977,1.99520095825195,4.77282485961914,6.6244743347168,8.40501898961148
4.34213966666721,3.0990055847168,5.65853302001953,6.05775283813477,8.84981361389533
4.35216366665554,3.5157389831543,6.1793000793457,5.70314025878906,9.11427335993897
4.36218766667298,2.85067199707031,6.29126724243164,6.55786285400391,9.52428157723713
4.37221166666132,1.68953659057617,5.81884963989258,8.71203323364258,10.611930459943
4.38223566664965,0.63468017578125,4.99331634521484,10.9853558349609,12.0836281749163
4.39225966666709,-0.23710693359375,4.12048141479492,11.6854499816895,12.3929144297132
4.40228366665542,-1.05590423583984,2.7017317199707,11.8204692077637,12.1711864801115
4.41230766667286,-1.9398161315918,0.582738189697266,12.1825662231445,12.3497931239117
4.42233166666119,-2.68287094116211,-1.72950347900391,12.6564807128906,13.0527959765941
4.43235566667863,-3.06772064208984,-3.60270812988281,14.1108563232422,14.8831005500269
4.44237966666697,-2.68825973510742,-4.01959121704102,14.7426924133301,15.5155030066567
4.4524036666553,-1.46350662231445,-3.04496795654297,14.8759153747559,15.2547218829722
4.46242766667274,0.336949310302734,-1.00560882568359,14.2121955871582,14.251711734232
4.47245166666107,2.24218734741211,1.31441665649414,12.8091632080078,13.0701858187688
4.48247566667851,3.81706237792969,2.28170516967773,11.3812825012207,12.2192362711805
4.49249966666685,4.3062451171875,2.08246948242188,10.2256855773926,11.2891572618249
4.50252366665518,3.70404739379883,1.67247207641602,9.41976150512695,10.2590953185635
4.51254766667262,2.65472946166992,1.101708984375,8.78178817749024,9.24019235704637
4.52257166666095,1.85569107055664,0.7807763671875,8.76622055053711,8.99443293518615
4.53259566667839,1.29989685058594,1.03809127807617,8.91845397949219,9.07227571825841
4.54261966666672,0.960702209472656,1.48715744018555,8.56324264526367,8.74435306862934
4.55264366665506,0.84589096069336,1.88128784179688,8.09007659912109,8.34889901967452
4.5626676666725,0.483195190429688,2.42510696411133,7.56766296386719,7.96141596163162
4.57269266666845,-0.0760418701171875,2.68990631103516,7.54670654296875,8.01212568385226
4.58271666665678,-0.9148974609375,3.05649398803711,8.15788558959961,8.75958276152089
4.59274066667422,-2.87552032470703,3.57546478271484,13.3830697631836,14.1477603116704
4.60276466666255,-9.94801300048828,1.41755218505859,35.5564599609375,36.9490766029274
4.61278866665089,-12.078981628418,-0.251177673339844,32.4607475280762,34.6361807577676
4.62281266666832,0.537382507324219,6.53061950683594,6.84571426391602,9.47636928815184
4.63283666665666,3.78547805786133,8.49902618408203,6.48197067260742,11.339278372313
4.6428606666741,3.00230667114258,8.75738891601563,11.4121183776855,14.6949702905535
4.65288466666243,3.57905731201172,8.45995742797852,14.9380361938477,17.5364037434867
4.66290866665077,2.75127868652344,6.76697799682617,10.4551583862305,12.7542880044953
4.6729326666682,1.10619964599609,7.07638458251953,6.87250854492188,9.92624148993697
4.68295666665654,-0.561482391357422,7.271279296875,6.62537246704102,9.85303635515431
4.69298066667398,-2.75038055419922,6.67417098999024,9.08954818725586,11.6072838271919
4.70300466666231,-2.52599716186523,6.2364811706543,7.81869094848633,10.3153423211069
4.71302866665064,-1.063388671875,5.29928009033203,6.90783508300781,8.77105184554823
4.72305266666808,-0.563578033447266,5.15857269287109,7.0319270324707,8.73936440580274
4.73307666665642,-1.72785690307617,4.0188427734375,7.78800476074219,8.93250272143601
4.74310066667385,-3.12370422363281,2.63556930541992,10.1875149536133,10.9767579262051
4.75312466666219,-3.88532043457031,1.60615997314453,12.9450805664063,13.6106787343383
4.76314866665052,-3.70180206298828,2.86219802856445,15.555502166748,16.2440501023595
4.77317241666606,-3.22639068603516,4.74438400268555,15.7056399536133,16.7208224312205
4.78319641665439,-3.22115158081055,5.23745864868164,13.5118020629883,14.8450525628097
4.79322041667183,-3.01428176879883,5.16066833496094,11.2848829650879,12.7697680394325
4.80324441666016,-2.24607925415039,5.30466888427734,10.8955426025391,12.3246595324775
4.8132684166776,-1.11398345947266,4.96981521606445,9.59804077148438,10.8656527222657
4.82329241666594,1.00022003173828,3.56992630004883,4.47689025878906,5.81268959165301
4.83331741666189,3.06846908569336,2.91578659057617,2.9747639465332,5.17363842080537
4.84334141665022,2.92506729125977,3.20423675537109,4.43722274780274,6.20581159531023
4.85336541666766,2.46986389160156,3.25303527832031,3.84819763183594,5.61169236315583
4.86338941665599,1.71273834228516,3.41948913574219,2.54381011962891,4.59318500643279
4.87341341667343,1.31666198730469,3.56408843994141,1.86557052612305,4.23280977418973
4.88343741666176,0.849932556152344,3.44328964233398,1.83578247070313,3.99358563082764
4.8934614166501,0.260608062744141,3.33431625366211,2.16854049682617,3.98599414552727
4.90348541666754,-0.679736480712891,3.26620788574219,1.72171966552734,3.75426081176574
4.91350941665587,-1.1593391418457,3.38101913452148,1.3937516784668,3.83639171293091
4.92353341667331,-0.981508941650391,4.00327514648438,2.50683700561523,4.82429305429522
4.93355741666164,-0.807271270751953,4.5216471862793,3.11098068237305,5.54753828178474
4.94358141664998,-0.837209014892578,4.20879776000977,2.7304719543457,5.08629281626108
4.95360541666742,-0.868044891357422,3.45900695800781,2.51641708374023,4.36469769953177
4.96362941665575,-0.698746948242188,2.89363265991211,2.7113117980957,4.02648344522621
4.97365341667319,-0.553698577880859,2.41747283935547,3.10424468994141,3.97329738871861
4.98367741666152,-0.675245819091797,2.1460871887207,3.61513229370117,4.25803107536255
4.99370141664986,-0.893641662597656,2.39112762451172,3.98157028198242,4.72958651979208
5.00372541666729,-1.50033004760742,2.87611907958984,4.22930511474609,5.33011003313739
5.01374941665563,-2.13291458129883,3.50600921630859,4.9722102355957,6.44703806898336
5.02377341667307,-2.42106536865234,4.14607818603516,5.58952651977539,7.36846853554229
5.0337974166614,-2.25730590820313,4.52344345092774,5.99129104614258,7.83916698486121
5.04382141664974,-1.75001083374023,4.64304473876953,6.69617523193359,8.33421652593599
5.05384541666717,-1.12236602783203,4.46491516113281,7.50494338989258,8.80450726514763
5.06387041666312,-0.740959167480469,4.38123916625977,8.48226104736328,9.57564773764461
5.07389441665146,-0.852327575683594,4.65711547851563,9.56136703491211,10.6693451745083
5.08391841666889,-1.27804229736328,5.14315475463867,10.3910916137695,11.6644853238265
5.09394241665723,-1.76797348022461,5.79534851074219,11.1408824157715,12.6819184506835
5.10396641667467,-2.13291458129883,6.55217468261719,12.1717886352539,13.9868780027547
5.113990416663,-2.02468963623047,7.21260131835938,12.7254872131348,14.7668212798935
5.12401441665134,-1.35812576293945,7.36079315185547,12.9711264038086,14.9758439360172
5.13403841666877,-0.527353363037109,6.59333908081055,13.3684002685547,14.9152387692703
5.14406241665711,0.216000823974609,5.42157577514649,13.3881591796875,14.4458626070672
5.15408641667455,0.738863525390625,4.34770889282227,13.0257627868652,13.7520539595204
5.16411041666288,0.916993103027344,3.61034225463867,12.3957229614258,12.9433146945845
5.17413441665121,0.612675933837891,3.41918975830078,11.6538656616211,12.1605433785783
5.18415841666865,0.0128732299804688,3.64102844238281,11.0021209716797,11.5889568000647
5.19418241665699,-0.682281188964844,4.07093444824219,10.2906504821777,11.0876283419424
5.20420641667442,-1.22714813232422,4.75950256347656,9.59639419555664,10.7819079363033
5.21423041666276,-1.4944921875,5.44522659301758,9.94921051025391,11.43987715516
5.22425441665109,-1.72680908203125,5.81405960083008,11.4933993530273,12.995514123572
5.23427841666853,-1.85179916381836,6.09577377319336,12.8218867492676,14.3174158928249
5.24430241665687,-1.66438888549805,6.19456832885742,13.6677777099609,15.0980467171074
5.2543264166743,-1.38057907104492,5.72259979248047,14.4763961791992,15.6275459779659
5.26435041666264,-1.09467361450195,4.90185653686523,15.2824699401855,16.0866527066065
5.27437441665097,-0.600401458740234,4.12197830200195,16.0168428039551,16.5496356588428
5.28439941667602,-0.130528564453125,3.73667953491211,16.6151486206055,17.0306481185414
5.29442341666436,0.0714015197753906,4.14143783569336,16.9709587097168,17.4691168938459
5.30444741665269,-0.141156463623047,5.10678039550781,16.9571873474121,17.7100348359454
5.31447141667013,-0.888252868652344,6.02167785644531,16.9901188659668,18.0475410082691
5.32449541665847,-1.8823356628418,6.74497375488281,16.8242637634277,18.2234384703615
5.3345194166759,-2.89153701782227,7.40420288085938,16.0306141662598,17.8931215044735
5.34454341666424,-3.50002166748047,7.64310607910156,14.4091859436035,16.6820820573025
5.35456741665257,-3.78248428344727,7.23565338134766,12.6727967834473,15.0751996843851
5.36459141667001,-3.86616027832031,6.50337615966797,11.0738218688965,13.4115855720287
5.37461541665834,-3.77978988647461,5.81061676025391,9.62962509155273,11.8650646068322
5.38463941667578,-3.54732330322266,5.31933837890625,8.27793594360352,10.459593055817
5.39466341666412,-3.2046858215332,5.03612731933594,7.06411010742188,9.24847237121232
5.40468741665245,-3.00904266357422,4.68570602416992,6.01224746704102,8.19495566193578
5.41471141666989,-3.21381683349609,4.21703063964844,5.25437347412109,7.46461028189308
5.42473541665822,-3.35931427001953,3.98785720825195,4.63570999145508,6.97694808659491
5.43475941667566,-2.80890884399414,3.53864135742188,4.21927597045899,6.18176684008849
5.444783416664,-1.925595703125,3.13552963256836,3.63264587402344,5.17064608483962
5.45480741665233,-1.34884506225586,2.98673904418945,2.94946655273438,4.40900737873691
5.46483141666977,-0.639021148681641,2.50174758911133,2.69020568847656,3.72884642676504
5.4748554166581,-0.121247863769531,1.82680114746094,3.46065353393555,3.9151023433333
5.48487941667554,0.254770202636719,1.13000015258789,5.28176651000977,5.40729744579129
5.49490441667149,0.714164886474609,0.4358935546875,5.03238510131836,5.10146395499002
5.50492841665982,0.669258270263672,0.0613723754882813,4.72223007202148,4.7698144674498
5.51495241667726,0.436641998291016,0.0226029968261719,4.3683659362793,4.39019226041211
5.5249764166656,0.281564483642578,0.340691528320313,3.74431365966797,3.77030954404201
5.53500041665393,0.168998565673828,0.902473297119141,3.12490173339844,3.25699699272343
5.54502441667137,0.122744750976563,1.47578109741211,2.70412673950195,3.08306625693653
5.5550484166597,-0.00269439697265625,1.80150375366211,2.30071563720703,2.92210805370415
5.56507241667714,-0.1197509765625,2.00552947998047,2.06705154418945,2.88256671697194
5.57509641666547,-0.222138061523438,2.24203765869141,2.02678527832031,3.03050107173447
5.58512041665381,-0.444276123046875,2.47091171264648,1.97574142456055,3.19473631805939
5.59514441667125,-0.672701110839844,2.58572296142578,1.78758270263672,3.21464491608882
5.60516841665958,-0.839005279541016,2.65428039550781,1.63100830078125,3.22634814523978
5.61519241667702,-0.926573181152344,2.71370681762695,1.54912857055664,3.25922412242249
5.62521641666535,-0.955912170410156,2.65607666015625,1.657353515625,3.2734281690484
5.63524041665369,-0.983005828857422,2.54021759033203,1.95313842773438,3.3516795168531
5.64526441667113,-0.8478369140625,2.44411743164063,2.20790863037109,3.40108776313752
5.65528841665946,-0.633931732177734,2.4427702331543,2.53033813476563,3.5737385088022
5.6653124166769,-0.656085662841797,2.71325775146484,3.13148803710938,4.19504867068664
5.67533641666523,-0.832269287109375,3.43535614013672,3.74775650024414,5.15170095802957
5.68536141666118,-1.07925567626953,4.40084838867188,4.16927993774414,6.15752828285113
5.69538541667862,-1.40303237915039,5.35646118164063,4.78360244750977,7.31731020411112
5.70540941666695,-1.66513732910156,6.23767868041992,5.90896224975586,8.7519799196509
5.71543341665529,-1.80030624389648,7.06800201416016,7.59011627197266,10.5265198458963
5.72545741667273,-1.57801849365234,7.72498580932617,9.69728439331055,12.4981147668496
5.73548141666106,-0.970431976318359,7.86584289550781,11.8513050842285,14.2571615294536
5.7455054166785,-0.386196899414063,7.46886840820313,13.9777830505371,15.8528092889574
5.75552941666683,-0.0731977844238281,6.80544799804688,15.4846994018555,16.914354730098
5.76554916665191,-0.261805572509766,6.57298141479492,16.40109375,17.6711205935935
5.77557316666935,-0.719104614257813,6.96127395629883,17.2239326477051,18.5914039919951
5.78559716665768,-0.898431701660156,7.30226486206055,17.4188273620605,18.9088814663243
5.79562116667512,-0.853076019287109,7.12054275512695,17.0161647033691,18.4656364372978
5.80564516666345,-0.668360137939453,6.57148452758789,16.6203877258301,17.8848651749807
5.81566916665179,-0.507444763183594,6.07257202148438,16.235687713623,17.3416027713152
5.82569316666923,-0.372126159667969,5.64865356445313,15.5745126342773,16.5713973087722
5.83571716665756,-0.358055419921875,5.29508880615234,14.7199397277832,15.647453298807
5.845741166675,-0.388741607666016,4.98104187011719,13.8750965881348,14.747210023576
5.85576516666333,-0.388591918945313,4.49575103759766,12.9399911499023,13.7042384695787
5.86578916665167,-0.3400927734375,3.8462516784668,11.8971098327637,12.5080189255331
5.87581416667672,-0.281115417480469,3.20288955688477,10.9864036560059,11.4472089473481
5.88583816666505,-0.271086273193359,2.77118728637695,10.2502345275879,10.6216888776807
5.89586216665339,-0.3017724609375,2.51716552734375,9.48592391967774,9.81885642629233
5.90588616667083,-0.442180480957031,2.35475326538086,8.66637817382813,8.99146802087211
5.91591016665916,-0.595611419677735,2.33379684448242,7.84533554077149,8.20674420351084
5.9259341666766,-0.703686676025391,2.45624221801758,6.97579376220703,7.42899719911336
5.93595816666493,-0.776585083007813,2.58871673583984,6.04787338256836,6.62429703297991
5.94598216665327,-0.853824462890625,2.65457977294922,5.26769577026367,5.96023730336598
5.9560061666707,-0.969384155273438,2.64499969482422,4.69663330078125,5.47668635108154
5.96603016665904,-1.08314758300781,2.65622634887695,4.27151733398438,5.14534813570208
5.97605416667648,-1.17864898681641,2.75502090454102,3.86825592041016,4.89313370800038
5.98607816666481,-1.25379272460938,2.84438507080078,3.51289489746094,4.69073056014571
5.99610216665315,-1.28133544921875,2.80187347412109,3.27024948120117,4.49297753919431
6.00612616667058,-1.21831649780273,2.67718276977539,3.07460632324219,4.25497434945516
6.01615016665892,-1.16832046508789,2.50893264770508,3.17789154052734,4.2141084921035
6.02617416667636,-1.20454513549805,2.36104019165039,3.4534684753418,4.35337619328035
6.03619816666469,-1.30319000244141,2.39786361694336,3.81242202758789,4.6885622342421
6.04622216665302,-1.41650436401367,2.77388168334961,4.39426208496094,5.38613437242495
6.05624616667046,-1.32863708496094,3.47083236694336,5.38026168823242,6.5390495988956
6.06627116666641,-1.27534790039063,4.23184982299805,6.85978500366211,8.16037471492008
6.07629516665475,-1.37249588012695,4.82147369384766,8.93042907714844,10.241236108176
6.08631916667218,-1.46694946289063,5.19135452270508,11.7638868713379,12.9418366868355
6.09634316666052,-1.44015518188477,5.33176254272461,15.5601425170898,16.5112014678538
6.10636716667796,-1.19691101074219,5.52605850219727,18.8613775634766,19.6906445331116
6.11639116666629,-0.785716094970703,6.12466369628906,21.7259706115723,22.5864263262128
6.12641516665462,-0.383352813720703,6.57552612304688,24.0165074157715,24.9033558306198
6.13643916667206,-0.0791853332519531,6.38931335449219,25.0225653076172,25.8255371683313
6.1464631666604,-0.0720002746582031,6.01119964599609,24.787703704834,25.5062729574945
6.15648716667783,-0.490080871582031,6.12391525268555,23.7644316101074,24.5456865260322
6.16651116666617,-1.00740509033203,6.63180908203125,22.2611077880859,23.249788744617
6.1765351666545,-1.43401794433594,7.04480026245117,20.570972442627,21.7910652662468
6.18655916667194,-1.57801849365234,7.33190322875977,18.6118464660645,20.0660852235448
6.19658316666028,-1.37593872070313,7.30645614624024,16.8354904174805,18.4041094969884
6.20660716667771,-1.11083999633789,6.96187271118164,15.4757180786133,17.0058662582321
6.21663116666605,-0.902173919677734,6.62237869262695,14.2963206481934,15.7814638549745
6.22665516665438,-0.70653076171875,6.20205276489258,13.0173802185059,14.436648917561
6.23667916667182,-0.534987487792969,5.54776336669922,11.7342485046387,12.9906303909241
6.24670416666777,-0.370629272460938,4.84647171020508,10.472522277832,11.5455349358577
6.2567281666561,-0.0561332702636719,4.2393342590332,9.08281219482422,10.0236013124171
6.26675216667354,0.240549774169922,3.67051712036133,7.74863662719727,8.57740809948214
6.27677616666188,0.542920989990234,3.16786239624023,6.50666931152344,7.25719373397223
6.28680016665021,0.836310882568359,2.69245101928711,5.28371246337891,5.98885012162001
6.29682416666765,1.05006637573242,2.41268280029297,4.2679248046875,5.0138667539874
6.30684816665598,1.21068237304688,2.25865310668945,3.4058674621582,4.26229971195742
6.31687216667342,1.14661560058594,2.07438629150391,2.77223510742188,3.64734058084911
6.32689616666175,0.9148974609375,1.96451477050781,2.38783447265625,3.2246099169324
6.33692016665009,0.6274951171875,2.04893920898438,2.05328018188477,2.96780415619502
6.34694416666753,0.307610321044922,2.21120178222656,1.67786087036133,2.79271454531697
6.35696816665586,-0.0526904296875,2.35445388793945,1.42877883911133,2.75456681946657
6.3669921666733,-0.393232269287109,2.35804641723633,1.22370529174805,2.68560405951844
6.37701616666163,-0.689316558837891,2.14084808349609,1.08374633789063,2.49657644781576
6.38704016664997,-0.877624969482422,1.7769548034668,1.09557174682617,2.26452454459352
6.39706416666741,-0.977467346191406,1.43282043457031,1.15395034790039,2.0832710375782
6.40708816665574,-0.9819580078125,1.1352392578125,1.16083602905273,1.89751152511195
6.41711316665169,-0.931961975097656,0.858315124511719,1.22385498046875,1.7615558433418
6.42713716666913,-0.892294464111328,0.590372314453125,1.35288665771484,1.72482787227575
6.43716116665746,-0.724942474365234,0.500259704589844,1.49838409423828,1.73808982996892
6.4471851666749,-0.515977020263672,0.236807556152344,1.61184814453125,1.70890741268211
6.45720916666323,-0.509839782714844,-0.167202301025391,1.88143753051758,1.95645096916508
6.46723316665157,-0.367036743164063,-0.293090515136719,2.41986785888672,2.46503113070983
6.47725716666901,-0.0520916748046875,-0.0151185607910156,3.16666488647461,3.16712939689802
6.48728116665734,-0.118254089355469,0.723146209716797,3.89070922851563,3.95910883547468
6.49730516667478,-0.539927215576172,1.91676406860352,4.31986679077149,4.75675887373111
6.50732916666311,-1.35198852539063,3.58639205932617,4.95125381469727,6.26138924788581
6.51735316665145,-2.79618530273438,5.87198913574219,6.42508895874023,9.14224681274946
6.52737716666888,-4.81818054199219,8.18722457885742,8.76128082275391,12.9230627830648
6.53740116665722,-6.40518035888672,9.28534103393555,10.8206982421875,15.6311037356559
6.54742516667466,-6.49678985595703,9.26932434082031,12.6108256530762,16.9458424346526
6.55744916666299,-4.99511260986328,8.1575862121582,13.9809265136719,16.940002035853
6.56747316665133,-3.06906784057617,6.2319905090332,14.7995741271973,16.3488310732341
6.57749716666876,-1.60615997314453,4.64379318237305,15.6786959838867,16.4306443189283
6.58752216666471,-0.862805786132813,3.6211198425293,15.7294404602051,16.1639178397343
6.59754616665305,-0.869691467285156,3.46364730834961,15.3246821594238,15.7352819870592
6.60757016667048,-1.27639572143555,4.10431503295899,15.1142198181152,15.7135046580252
6.61759416665882,-1.73444320678711,4.72627166748047,14.3542501831055,15.2115231134684
6.62761816667626,-2.12019104003906,4.89946151733399,13.3959429931641,14.4205139257309
6.63764216666459,-2.33469497680664,4.68735260009766,12.6948010253906,13.7324450884257
6.64766616665293,-2.20521423339844,4.35594177246094,11.8165773010254,12.7854877752615
6.65769016667036,-1.83323776245117,3.93980712890625,10.8079747009277,11.6488264663249
6.6677141666587,-1.45707000732422,3.49478256225586,9.94007949829102,10.6368105462134
6.67773816667614,-1.15185470581055,3.21800811767578,9.23714126586914,9.84921947538726
6.68776216666447,-0.949026489257813,3.26605819702148,8.72221206665039,9.36187859135472
6.6977861666528,-0.868493957519531,3.59926528930664,8.17974014282227,8.97870487214908
6.70781016667024,-0.827928314208984,3.96315856933594,7.57499771118164,8.58910248300583
6.71783416665858,-0.797391815185547,4.11374542236328,6.97579376220703,8.13759385320909
6.72785816667602,-0.800535278320313,4.13545028686523,6.36970413208008,7.63648718568997
6.73788216666435,-0.818497924804688,4.15026947021484,5.73128173828125,7.12336057572991
6.74790616665268,-0.805624694824219,4.11778701782227,5.10348724365234,6.60687392941461
6.75793116667774,-0.775686950683594,3.95866790771484,4.44141403198242,5.99990837034388
6.76795541666797,-0.742156677246094,3.75613906860352,3.81197296142578,5.40282473294405
6.77797941665631,-0.659528503417969,3.48400497436523,3.32219146728516,4.85903536244847
6.78800341667375,-0.568667449951172,3.1805859375,2.90560775756836,4.345349930132
6.79802741666208,-0.450712738037109,2.95500503540039,2.63212646484375,3.98287414543837
6.80805141665041,-0.298179931640625,2.87806503295898,2.39861206054688,3.75839186655348
6.81807541666785,-0.215252380371094,3.00634826660156,2.20626205444336,3.73524507097329
6.82809941665619,-0.351020050048828,3.3338671875,2.07932601928711,3.94480445572525
6.83812341667363,-0.729433135986328,3.93965744018555,2.02034866333008,4.48717975651788
6.84814741666196,-1.36201766967773,4.76504104614258,2.30670318603516,5.46640539041907
6.85817141665029,-2.0694465637207,5.46393768310547,3.13463150024414,6.63047047556041
6.86819541666773,-2.66775238037109,5.88381454467774,4.38857391357422,7.80997806360819
6.87821941665607,-2.84962417602539,6.15954116821289,5.97272964477539,9.04067501667196
6.8882434166735,-2.6969416809082,6.35877685546875,8.00086212158203,10.5698312293258
6.89826741666184,-2.35699859619141,6.41940078735352,10.6710095214844,12.6741703104674
6.90829141665017,-2.05926773071289,6.19022735595703,12.8227848815918,14.3869145554137
6.91831641667523,-2.03382064819336,5.67679504394531,14.5763882446289,15.7744579196287
6.92834041666356,-2.53018844604492,5.49656982421875,15.9487344360352,17.058026366382
6.93836441665189,-3.25602905273438,6.24920471191406,17.6063873291016,18.9641545950777
6.94838841666933,-3.78757369995117,7.03132827758789,18.7940176391602,20.4205874279079
6.95841241665767,-3.72859634399414,7.05946975708008,19.4264524841309,21.0029902648592
6.9684364166751,-3.40197555541992,6.62133087158203,19.2989176940918,20.6848660704866
6.97846041666344,-3.33925598144531,6.71309005737305,18.8118305969238,20.2509550153907
6.98848441665177,-3.7744010925293,7.33070571899414,18.226847076416,20.0050819616625
6.99850841666921,-4.59529403686523,8.35278030395508,17.758920135498,20.1560142505999
7.00853241665755,-5.25227783203125,9.45778244018555,17.304165802002,20.4076021426796
7.01855641667498,-5.24958343505859,9.95669494628906,17.096397857666,20.4690185451747
7.02858041666332,-4.52044967651367,9.46856002807617,17.3755673217773,20.2977445554128
7.03860441665165,-3.39718551635742,8.50261871337891,18.1070960998535,20.2904490730733
7.04862841666909,-2.20745956420898,7.80476989746094,18.7570445251465,20.4356069202326
7.05865241665742,-1.40452926635742,7.32202377319336,18.9562802124023,20.3697151204031
7.06867641667486,-1.11862380981445,6.74168060302734,18.5624491882324,19.7804473267626
7.0787004166632,-1.44090362548828,6.11164077758789,17.7276351928711,18.8068446525126
7.08872541665915,-1.85718795776367,5.67365158081055,16.2862825012207,17.3459639997454
7.09874941667658,-2.13111831665039,5.25542129516602,14.3635308837891,15.4425431104728
7.10877341666492,-2.13246551513672,4.63406341552734,12.3782093811035,13.3881298318628
7.11879741665325,-2.09414520263672,4.04428985595703,10.6117327880859,11.5477529127732
7.12882141667069,-1.90598648071289,3.67051712036133,9.09583511352539,9.99198162568203
7.13884541665902,-1.55317016601563,3.38790481567383,7.60688140869141,8.47082530634187
7.14886941667646,-1.28028762817383,3.17804122924805,6.30878082275391,7.17912236524792
7.1588934166648,-1.11293563842773,2.92851013183594,5.30676452636719,6.16251142521111
7.16891741665313,-0.952768707275391,2.6009912109375,4.57658294677734,5.34958269004887
7.17894141667057,-0.658181304931641,2.23320602416992,4.05476806640625,4.67563427236329
7.1889654166589,-0.393980712890625,1.84700912475586,3.6741096496582,4.13107071190663
7.19898941667634,-0.179925842285156,1.44988494873047,3.37563034057617,3.67823597251394
7.20901341666468,-0.0053887939453125,1.04557571411133,3.00634826660156,3.18298405794591
7.21903741665301,0.0333805847167969,0.690963134765625,2.71056335449219,2.79744490844004
7.22906141667045,0.0600251770019531,0.423170013427734,2.34741851806641,2.38601122820066
7.23908541665878,0.0537382507324219,0.253273315429688,1.81317947387695,1.83157172297162
7.24911041665473,-0.0526904296875,0.144898681640625,1.46006378173828,1.46818192199255
7.25913441667217,-0.247585144042969,0.0814306640625,1.31321914672852,1.33883303064079
7.2691584166605,-0.467178497314453,-0.0476010131835938,1.07581283569336,1.17383766435214
7.27918241667794,-0.594862976074219,-0.255368957519531,0.695304107666016,0.950012140399123
7.28920641666628,-0.660127258300781,-0.538130950927734,0.408201141357422,0.944447504789756
7.29923041665461,-0.706231384277344,-0.877175903320313,0.247884521484375,1.15310323453524
7.30925441667205,-0.726289672851563,-1.09437423706055,0.114511871337891,1.3184326407936
7.31927841666038,-0.682430877685547,-1.12371322631836,0.147443389892578,1.32294477248466
7.32930241667782,-0.718655548095703,-1.49494125366211,0.0785865783691406,1.66056948033178
7.33932641666615,-0.948727111816406,-1.80614410400391,0.198636932373047,2.04980396331604
7.34935041665449,-1.10051147460938,-1.8248551940918,0.329764251708984,2.15637808532175
7.35937441667193,-0.890348510742188,-1.54119506835938,0.360899505615234,1.81610879698035
7.36939841666026,-0.716410217285156,-1.16742233276367,0.389939117431641,1.42413869330529
7.3794224166777,-0.801134033203125,-0.679586791992188,0.676293640136719,1.24941067495676
7.38944641666603,-0.952020263671875,-0.215102691650391,1.19586318969727,1.54359985711001
7.39947141666198,-1.43147323608398,0.465232543945313,1.53460876464844,2.14955367602356
7.40949541665032,-2.15252380371094,1.46889541625977,1.63714553833008,3.07754089869253
7.41951941666775,-3.07804916381836,2.81444732666016,1.86601959228516,4.56919353149103
7.42954341665609,-4.29501846313477,4.69872894287109,2.43124420166016,6.81441014654601
7.43956741667353,-5.85013458251953,7.03297485351563,3.02490966796875,9.63519010830326
7.44959141666186,-7.31124618530274,8.98072448730469,3.6019596862793,12.1277304835059
7.4596154166502,-8.1815364074707,9.7861994934082,4.473896484375,13.517506732547
7.46963941666763,-8.34275115966797,9.87810836791992,5.91255477905273,14.2174831055222
7.47966341665597,-7.96733184814453,9.86882766723633,7.33399887084961,14.651268741706
7.48968741667341,-7.40944198608398,9.77766723632813,8.86920639038086,15.1382108957658
7.49971141666174,-6.98088317871094,9.84323089599609,10.5553001403809,16.0323512149724
7.50973541665007,-6.56968826293945,10.1984422302246,11.9144737243652,17.0036381966926
7.51975941666751,-5.61751831054688,10.0816850280762,13.7983062744141,17.9886114254881
7.52978341665585,-4.20969589233398,8.99389709472656,16.7381927490234,19.4622409028335
7.53980741667328,-3.19435729980469,7.24074279785156,18.6516636657715,20.261214976514
7.54983141666162,-2.4095393371582,6.09607315063477,20.3947888183594,21.4223107675311
7.55985541664995,-1.99834442138672,5.73472457885742,21.5024853515625,22.3436192841715
7.56988041667501,-2.50668731689453,6.00820587158203,21.2165798950195,22.1929106144674
7.57990441666334,-4.17377059936524,7.0940478515625,20.5387893676758,22.1266297620342
7.58992841665167,-6.57432861328125,8.66263595581055,20.4485270690918,23.1604256807532
7.59995241666911,-8.53794525146484,9.97331039428711,19.874620513916,23.8194032232123
7.60997641665745,-9.45284271240234,10.3590582275391,18.8735023498535,23.5133029082877
7.62000041667488,-8.99838775634766,9.7909895324707,17.9997692871094,22.3791454847522
7.63002441666322,-7.63292724609375,8.83627487182617,17.1809719848633,20.7732310991642
7.64004841665155,-6.46685211181641,8.18557800292969,16.2500578308105,19.3103144195748
7.65007241666899,-5.72753952026367,7.83365982055664,15.0934130859375,17.943858384504
7.66009641665733,-5.30407012939453,7.61795837402344,14.0517292785645,16.8409484722196
7.67012041667476,-5.0966015625,7.59894790649414,13.2821795654297,16.1287213002397
7.6801444166631,-4.83883758544922,7.51197875976563,12.4668251037598,15.3383800394064
7.69016841665143,-4.6033772277832,6.93926971435547,11.9170184326172,14.538221156427
7.70019241666887,-4.32705184936524,6.25189910888672,11.632759552002,13.8971477278428
7.7102164166572,-3.65794326782227,5.84265014648438,10.9028773498535,12.8992187434266
7.72024041667464,-2.70562362670898,5.36140090942383,9.96717315673828,11.6365613330305
7.73026541667059,-1.76662628173828,4.62927337646484,9.39266784667969,10.6194797279069
7.74028941665893,-1.05380859375,3.80493759155273,9.01200942993164,9.83892151574802
7.75031341667636,-0.477057952880859,2.98733779907227,8.63194976806641,9.14671133329321
7.7603374166647,0.133073272705078,2.24039108276367,8.15114959716797,8.45448404428366
7.77036166665494,0.703087921142578,1.54134475708008,7.59460693359375,7.78126794043394
7.78038566667237,1.28687393188477,1.02192489624023,6.84541488647461,7.03989204307057
7.79040966666071,1.82275955200195,0.771795043945313,5.90102874755859,6.22416743458801
7.80043366667815,2.13965057373047,0.486638031005859,5.3503239440918,5.78280965081926
7.81045766666648,2.18470687866211,0.665216674804688,4.51805465698242,5.06243767898355
7.82048166665481,2.04744232177734,0.847238159179688,3.41454940795898,4.07050122451379
7.83050566667225,1.78698394775391,0.788111114501953,2.42271194458008,3.11190679885221
7.84052966666059,1.34390533447266,0.631387023925781,1.6527131652832,2.2217542457946
7.85055366667802,0.94603271484375,0.529449005126953,1.32070358276367,1.70866968724483
7.86057766666636,0.608933715820313,0.481997680664063,1.28822113037109,1.50420600821924
7.87060166665469,0.277073822021484,0.486039276123047,1.56903717041016,1.66579762363635
7.88062666665064,-0.0983454895019531,0.514180755615234,2.16255294799805,2.22501436796383
7.89065066666808,-0.41912841796875,0.582738189697266,2.5722509765625,2.67052944468084
7.90067466665641,-0.666114807128906,0.660276947021484,2.41268280029297,2.58857352182122
7.91069866667385,-0.797242126464844,0.689466247558594,1.93861862182617,2.206626582733
7.92072266666219,-0.764759674072266,0.613723754882813,1.46545257568359,1.76325422386344
7.93074666665052,-0.617465972900391,0.451760559082031,1.17505645751953,1.40218026971937
7.94077066666796,-0.408949584960938,0.229023742675781,0.990490264892578,1.09579313859684
7.95079466665629,-0.208965454101563,0.0534388732910156,0.847088470458984,0.874117355376855
7.96081866667373,-0.0630189514160156,-0.178129577636719,0.719853057861328,0.744237838045685
7.97084266666207,-0.0848735046386719,-0.471220092773438,0.665066986083984,0.819491295623018
7.9808666666504,-0.222886505126953,-0.599802703857422,0.607137451171875,0.882075712361395
7.99089066666784,-0.349972229003906,-0.504450988769531,0.661025390625,0.90216735043752
8.00091466665617,-0.496816864013672,-0.270188140869141,0.689166870117188,0.89150412377163
8.01093866667361,-0.656534729003906,0.164507904052734,0.687669982910156,0.964878596653336
8.02096266666194,-0.842448120117188,0.808618469238281,0.684227142333984,1.35342138530052
8.03098666665028,-1.00545913696289,1.56768997192383,0.668958892822266,1.97891534039703
8.04101166667533,-1.16906890869141,2.42286163330078,0.738264770507813,2.78962640487267
8.05103566666367,-1.39958953857422,3.40347244262695,0.835263061523438,3.77361099295529
8.061059666652,-1.73549102783203,4.47314804077149,0.997525634765625,4.90061627699597
8.07108366666944,-2.43498641967773,5.96000610351563,1.72815628051758,6.6661349932214
8.08110766665777,-3.8273908996582,8.46220275878906,3.44508590698242,9.90587772668998
8.09113166667521,-5.87198913574219,11.793076171875,6.05730377197266,14.4999252064235
8.10115566666354,-8.25982360839844,15.3198921203613,7.99292861938477,19.1523024343275
8.11117966665188,-9.47799041748047,16.3527442932129,10.6371798706055,21.6885717342722
8.12120366666932,-8.79166763305664,13.8517451477051,15.1890641784668,22.3578159493429
8.13122766665765,-7.2663395690918,10.9337132263184,18.5340083312988,22.7124468182839
8.14125166667509,-5.09151214599609,8.58524688720703,21.239033203125,23.4675625374808
8.15127566666342,-2.86399429321289,5.95955703735352,23.7517080688477,24.6548660426454
8.16129966665176,-1.95313842773438,4.01614837646484,23.921455078125,24.3347531434865
8.1713236666692,-1.88353317260742,3.82798965454102,24.1299714660645,24.5042185135676
8.18134866666514,-2.99257690429688,5.1350715637207,23.4584678649902,24.1996733669164
8.19137266665348,-5.29374160766602,7.17892135620117,23.055206451416,24.7205007345052
8.20139666667092,-7.86883666992188,8.86561386108398,23.0300587463379,25.9017625950731
8.21142066665925,-9.28638885498047,9.66046096801758,21.9740048217773,25.7374903980165
8.22144466667669,-8.89809631347656,9.73874816894531,19.9391363525391,23.9079169395241
8.23146866666502,-7.15377365112305,9.4796369934082,18.0844931030273,21.6353619283741
8.24149266665336,-5.20108428955078,8.7895719909668,16.418757019043,19.3360656707039
8.2515166666708,-4.10401565551758,8.08753189086914,14.808256072998,17.3647794258966
8.26154066665913,-4.05865997314453,8.07166488647461,13.4324670410156,16.188133481817
8.27156466667657,-4.37914352416992,8.36954544067383,12.0435054016113,15.3059534576394
8.2815886666649,-4.42150543212891,8.27628936767578,10.8373136901855,14.3350634460867
8.29161266665324,-3.97393615722656,7.69055740356445,9.77766723632813,13.0590818338655
8.30163666667067,-3.36709808349609,6.81697402954102,9.12712005615235,11.8790910823488
8.31166066665901,-2.77867172241211,5.72274948120117,8.76038269042969,10.8265960970335
8.32168466667645,-2.1074674987793,4.66699493408203,8.3635578918457,9.80669983141184
8.33170866666478,-1.25064926147461,3.82050521850586,7.77034149169922,8.74863364174543
8.34173366666073,-0.40954833984375,3.03658538818359,7.26065139770508,7.88071312644964
8.35175766667817,0.288450164794922,2.17812057495117,6.87909484863281,7.22145128579307
8.3617816666665,0.783021697998047,1.28058700561523,6.45787078857422,6.630016680251
8.37180566665484,1.10140960693359,0.574355621337891,6.03634735107422,6.16283026253594
8.38182966667227,1.13838272094727,0.183967437744141,5.56782165527344,5.68598252041222
8.39185366666061,1.00141754150391,0.0565823364257813,5.20138366699219,5.29720970931681
8.40187766667805,0.842597808837891,0.184566192626953,4.73824676513672,4.81612065403763
8.41190166666638,0.743354187011719,0.409099273681641,4.10117156982422,4.18802410549523
8.42192566665472,0.551303558349609,0.686322784423828,3.35617080688477,3.46970561616598
8.43194966667215,0.315394134521484,1.04752166748047,2.93689270019531,3.13402518119943
8.44197366666049,0.0573307800292969,1.43910736083984,2.70188140869141,3.06177725528727
8.45199766667793,-0.254321136474609,1.82066390991211,2.45669128417969,3.06835923240396
8.46202166666626,-0.570763092041016,2.1029768371582,2.16225357055664,3.06979194543296
8.47204566665459,-0.915645904541016,2.32601303100586,1.8775456237793,3.12632717614209
8.48206966667203,-1.25379272460938,2.48288681030273,1.7051042175293,3.26253023000476
8.49209466666798,-1.40542739868164,2.48483276367188,1.61469223022461,3.27976386874573
8.50211866665632,-1.39764358520508,2.22661972045898,1.6140934753418,3.08488909329699
8.51214266667375,-1.27235412597656,1.78608581542969,1.67546585083008,2.7597415421134
8.52216666666209,-1.01758392333984,1.2500505065918,1.70809799194336,2.34855318444166
8.53219066665042,-0.750389556884766,0.687669982910156,1.58310791015625,1.88207469237452
8.54221466666786,-0.51013916015625,0.246836700439453,1.45317810058594,1.55977463482111
8.55223866665619,-0.340990905761719,-0.0387693786621094,1.33477432250977,1.37818734378366
8.56226266667363,-0.324674835205078,-0.212857360839844,1.30184280395508,1.3584979539509
8.57228666666197,-0.433199157714844,-0.264949035644531,1.29510681152344,1.39110069908264
8.5823106666503,-0.56761962890625,-0.189655609130859,1.4034814453125,1.52575275209679
8.59233466666774,-0.674347686767578,-0.05748046875,1.73264694213867,1.8601382295515
8.60235866665607,-0.834215240478516,0.0136216735839844,2.17617462158203,2.33063008670521
8.61238266667351,-0.977018280029297,0.0952020263671875,2.50923202514648,2.69441524293427
8.62240666666185,-0.975222015380859,0.306712188720703,2.60039245605469,2.79413157734196
8.63243066665018,-0.874780883789063,0.740659790039063,2.41522750854492,2.67341400408833
8.64245566667523,-0.807720336914063,1.35513198852539,2.2275178527832,2.72958433345761
8.65247966666357,-1.15035781860352,2.38409225463867,2.17587524414063,3.42660941274525
8.6625036666519,-1.97229858398438,3.90028930664063,2.5721012878418,5.07128419779442
8.67252766666934,-3.23432418823242,5.84145263671875,3.54358108520508,7.55912619083958
8.68255166665767,-5.15168701171875,8.7036506652832,5.10318786621094,11.3285453774012
8.69257566667511,-7.21155349731445,12.1888531494141,7.03432205200195,15.813169564445
8.70259966666345,-8.15459243774414,13.5309622192383,9.22292083740235,18.2933481128294
8.71262366665178,-7.51946319580078,11.972552947998,12.5373284912109,18.8962683231941
8.72264766666922,-6.03604797363281,9.90071136474609,16.2933178710938,19.9982541217105
8.73267166665755,-4.44560531616211,8.03499114990235,20.5377415466309,22.4971846514693
8.74269566667499,-2.81714172363281,6.18289260864258,24.593557434082,25.5148489269392
8.75271966666332,-1.68744094848633,4.60771820068359,27.4831484985352,27.9177716761935
8.76274366665166,-0.56567367553711,4.08171203613281,30.3480409240723,30.6265235993619
8.77277091666474,0.327818298339844,4.62074111938477,30.7533979797363,31.1003247672617
8.78279491665307,0.561632080078125,5.97437622070313,29.7850616455078,30.3835234797838
8.79281991667813,0.228574676513672,7.14673828125,27.4734187316895,28.3886747004888
8.80284391666646,-0.829425201416016,7.86898635864258,24.5749960327148,25.8174228474725
8.8128679166548,-2.48273712158203,8.89076156616211,21.6698373413086,23.5540118714413
8.82289191667223,-4.12661865234375,9.99366806030274,18.3672550964356,21.3133395454331
8.83291591666057,-5.06501724243164,11.28533203125,15.8711956787109,20.1223251885467
8.84293991667801,-4.90754470825195,12.1816680908203,14.3177261352539,19.4286982122461
8.85296391666634,-4.33214126586914,11.49609375,13.6279605102539,18.3479951799992
8.86298791665467,-3.9709423828125,10.2454444885254,13.7616325378418,17.6102256170004
8.87301191667211,-4.03605697631836,9.1103549194336,13.5908377075195,16.8522755812463
8.88303591666045,-4.12093048095703,7.99547332763672,13.0989605712891,15.8900103779078
8.89305991667789,-3.69132385253906,6.8690657043457,12.4415277099609,14.6833765596564
8.90308391666622,-3.06218215942383,5.52695663452148,11.2794941711426,12.9286966850574
8.91310791665455,-2.41133560180664,4.2294548034668,10.1117724609375,11.2227790507023
8.92313191667199,-1.57756942749023,3.22234909057617,8.81217498779297,9.51455132812751
8.93315691666794,-0.761017456054688,2.45519439697266,7.5061408996582,7.93405812310872
8.94318091665627,0.0597257995605469,1.82201110839844,6.25818603515625,6.51829610411227
8.95320491667371,0.805624694824219,1.30214218139648,5.12339584350586,5.34731618466084
8.96322891666205,1.35049163818359,0.913550262451172,4.3539958190918,4.64926675288666
8.97325291665038,1.68759063720703,0.667611694335938,3.90448059082031,4.30565166000403
8.98327691666782,1.7434245300293,0.486787719726563,3.42607543945313,3.87485280917977
8.99330091665615,1.59193954467773,0.453856201171875,2.99167877197266,3.41912252484797
9.00332491667359,1.19915634155273,0.841100921630859,2.83405654907227,3.19018858614876
9.01334891666193,0.651595001220703,1.1255094909668,2.2802082824707,2.62501380402468
9.02337291665026,0.388142852783203,1.19825820922852,1.62606857299805,2.05683655506268
9.0333969166677,0.182769927978516,1.09572143554688,0.995729370117188,1.49180671985487
9.04342091665603,-0.157173156738281,0.86265609741211,0.197289733886719,0.898778161004405
9.05344491667347,-0.573307800292969,0.575403442382813,-0.0041912841796875,0.812273674475437
9.06346891666181,-1.06997497558594,0.336051177978516,0.479752349853516,1.2198111164401
9.07349291665014,-1.42473724365234,0.502804412841797,1.35767669677734,2.03124949329114
9.08351791667519,-1.54793106079102,0.967737579345703,1.85733764648438,2.60428679766411
9.09354191666353,-1.5185920715332,1.45497436523438,1.51559829711914,2.59231758884654
9.10356591665186,-1.43746078491211,1.54493728637695,0.988544311523438,2.33030997569921
9.1135899166693,-1.25199645996094,1.23882385253906,0.669707336425781,1.88432682670416
9.12361391665763,-1.0969189453125,0.737965393066406,0.723146209716797,1.50690561568298
9.13363791667507,-1.03509750366211,0.257614288330078,1.11817474365234,1.54535003186376
9.14366191666341,-0.972826995849609,-0.105530548095703,1.63085861206055,1.90190138360726
9.15368591665174,-0.878223724365234,-0.389190673828125,1.87395309448242,2.10581254886397
9.16370991666918,-0.839903411865234,-0.551004180908203,1.88832321166992,2.13888005750032
9.17373391665751,-0.716410217285156,-0.552800445556641,1.90029830932617,2.10474834516293
9.18375791667495,-0.521814880371094,-0.453556823730469,1.95538375854492,2.07401306768073
9.19378191666328,-0.369282073974609,-0.339344329833984,2.04744232177734,2.1079715096164
9.20380591665162,-0.145796813964844,-0.145198059082031,2.34397567749023,2.35298983507989
9.21382991666906,0.209713897705078,0.240400085449219,2.81863861083984,2.83663457965453
9.22385491666501,0.663719787597656,0.842148742675781,3.44313995361328,3.60623781819879
9.23387891665334,0.908161468505859,1.6239729309082,4.21253997802734,4.60516431842339
9.24390291667078,0.736468505859375,2.577041015625,4.71744003295899,5.42565818319772
9.25392691665911,-0.118553466796875,3.83367782592773,5.57770111083984,6.76918682556211
9.26395091667655,-1.76228530883789,5.42157577514649,7.55538848876953,9.46483114543689
9.27397491666488,-4.07931701660156,7.60119323730469,10.6470593261719,13.7032418882469
9.28399891665322,-6.38422393798828,10.6277494812012,13.7450170898438,18.5103449218444
9.29402291667066,-7.76884460449219,13.4866543579102,15.254029083252,21.7928932345198
9.30404691665899,-7.62858627319336,14.2077049255371,16.6079635620117,23.1490531438285
9.31407091667643,-6.36401596069336,12.6657614135742,18.2467556762695,23.1055470405489
9.32409491666476,-4.9913703918457,10.8299789428711,19.7936389160156,23.1082315166962
9.3341189166531,-3.75958190917969,9.72797058105469,21.3987510681152,23.8049241761628
9.34414291667054,-2.95141250610352,9.0245832824707,22.5332418823242,24.4520127787216
9.35416691665887,-2.47001358032227,8.33661392211914,23.1243626403809,24.7049842399725
9.36419191665482,-2.46402603149414,7.9896354675293,23.5354078674316,24.9764113249731
9.37421591667226,-3.38625823974609,8.4111589050293,23.4734367370606,25.1637948497576
9.38423991666059,-4.92999801635742,9.34147430419922,22.6595791625977,25.000491004045
9.39426391667803,-6.30324234008789,10.0215101623535,21.1463758850098,24.2349075302992
9.40428791666636,-7.07413925170899,10.5725143432617,19.5117750549316,23.2922921045847
9.4143119166547,-7.01156936645508,10.7446563720703,17.9153448486328,22.0356376485891
9.42433591667214,-6.19546646118164,9.93768447875977,16.3296922302246,20.0947810588936
9.43435991666047,-5.15962051391602,8.72355926513672,15.0068930053711,18.1088102252642
9.44438391667791,-4.45024566650391,7.71570510864258,14.011612701416,16.6030744836688
9.45440791666624,-4.1144938659668,6.97549438476563,13.2441586303711,15.5239917389635
9.46443191665458,-3.85927459716797,6.24246871948242,12.3705752563477,14.3837946419929
9.47445591667201,-3.50196762084961,5.35301834106445,11.5086676025391,13.1669287445092
9.48447991666035,-2.9939241027832,4.56835006713867,10.6599325561523,11.9777947039874
9.49450391667779,-2.27571762084961,3.83592315673828,9.72033645629883,10.6947715252781
9.50452791666612,-1.21262832641602,2.97311737060547,8.85842880249023,9.42240177482424
9.51455191665446,0.00434097290039063,1.93637329101563,7.88769744873047,8.12190442007991
9.5245769166504,0.995130615234375,0.861159210205078,6.96411804199219,7.08737047356062
9.53460091666784,1.62621826171875,0.0413140869140625,6.28048965454102,6.48774560146449
9.54462491665618,1.9398161315918,-0.482147369384766,5.57919799804688,5.92644944394185
9.55464891667361,1.90463928222656,-0.732426910400391,4.80800170898438,5.22311979645076
9.56467291666195,1.81153289794922,-0.598305816650391,4.04279296875,4.47032395680273
9.57469691665028,1.53460876464844,-0.190553741455078,3.03149597167969,3.40313129562004
9.58472091666772,1.01159637451172,0.391136627197266,2.07229064941406,2.33895353132752
9.59474491665606,0.458346862792969,0.9340576171875,1.41066650390625,1.75286207788897
9.60476891667349,-0.185164947509766,1.39120697021484,1.04931793212891,1.7523729667077
9.61479291666183,-0.835562438964844,1.77845169067383,0.975072326660156,2.19358634379591
9.62481691665016,-1.50227600097656,2.0787272644043,1.08659042358398,2.78542976423968
9.6348409166676,-1.95313842773438,2.46432540893555,1.05320983886719,3.31615747570961
9.64486491665593,-2.00463134765625,2.81070510864258,1.02222427368164,3.60049337083955
9.65488891667337,-1.79386962890625,2.71924530029297,1.04362976074219,3.42073476407985
9.66491291666171,-1.39988891601563,2.18066528320313,0.998274078369141,2.77696618454286
9.67493791665766,-0.974174194335938,1.43521545410156,0.990789642333985,1.9976293139515
9.68496191667509,-0.613723754882813,0.877026214599609,1.06503524780273,1.51001056534867
9.69498591666343,-0.245190124511719,0.625249786376953,1.10021209716797,1.28900044657759
9.70500991665176,0.0907113647460938,0.603395233154297,1.29705276489258,1.43340860678416
9.7150339166692,0.468974761962891,0.729283447265625,1.60181900024414,1.82143234388679
9.72505791665753,0.805475006103516,0.896485748291016,2.11076065063477,2.43059400283438
9.73508191667497,0.891246643066406,1.07147186279297,2.71789810180664,3.05439726023619
9.74510591666331,0.794248352050781,1.12251571655273,3.0609846496582,3.35566670038704
9.75512991665164,0.604592742919922,1.06787933349609,3.32578399658203,3.54495949872783
9.76515391666908,0.548010406494141,0.973425750732422,3.58145233154297,3.75162283564452
9.77517454166082,0.655187530517578,0.964444427490234,3.73548202514648,3.91321475440017
9.78519854167826,0.666114807128906,1.22071151733398,3.62755645751953,3.88497250921031
9.79522254166659,0.465382232666016,1.82350799560547,3.53953948974609,4.00875315179051
9.80524654165492,0.0363743591308594,2.68960693359375,3.79266311645508,4.64968838376901
9.81527154165087,-0.83586181640625,3.84834732055664,4.40938064575195,5.91194382203462
9.82529554166831,-2.36463272094727,5.40196655273438,5.41229507446289,8.00410322989969
9.83531954165665,-4.36686904907227,7.56975860595703,6.63734756469727,10.9738404097562
9.84534354167408,-6.53735549926758,10.13572265625,7.64879425048828,14.2819446916212
9.85536754166242,-7.90595947265625,12.4415277099609,8.80469055175781,17.1702761379432
9.86539154165075,-7.89982223510742,14.2147402954102,10.115065612793,19.1515165290731
9.87541554166819,-6.94735290527344,13.9521862792969,11.8730099487305,19.5933044585456
9.88543954165652,-5.27248580932617,11.1753108215332,14.7251788330078,19.2228398066333
9.89546354167396,-3.78817245483398,8.24769882202149,17.6149195861816,19.8156548827936
9.9054875416623,-2.91803192138672,6.41790390014648,20.2322268676758,21.4253915901402
9.91551154165063,-2.25715621948242,5.58069488525391,22.0889657592773,22.894569616308
9.92553554166807,-1.99056060791016,5.63398406982422,22.7823239135742,23.5528849811613
9.9355595416564,-2.1317170715332,6.49454452514649,22.8776756286621,23.8770050138718
9.94558354167384,-2.50638793945313,7.70822067260742,22.3293658447266,23.7549831712904
9.95560754166218,-2.93464736938477,8.7036506652832,21.6548684692383,23.5223089535431
9.96563154165051,-3.36590057373047,8.87878646850586,20.9357638549805,22.9884393558386
9.97565654167556,-3.6741096496582,8.64766708374024,20.1985469055176,22.2769505274692
9.9856805416639,-3.75164840698242,8.58644439697266,18.9344256591797,21.1261536535859
9.99570454165223,-3.62396392822266,8.71517669677735,17.3335047912598,19.7367121820666
10.0057285416697,-3.36679870605469,8.85753067016602,15.6601345825195,18.3038520055929
10.015752541658,-3.26156753540039,8.83537673950195,13.9915544128418,16.8660991282639
10.0257765416754,-3.28432022094727,8.70305191040039,12.3377934265137,15.4515700983483
10.0358005416638,-3.33416656494141,8.48794921875,10.7814797973633,14.1209863410388
10.0458245416521,-3.37173843383789,8.16177749633789,9.55732543945313,13.0125209518204
10.0558485416695,-3.44164306640625,7.66690658569336,8.57372085571289,12.0056258854746
10.0658725416579,-3.45421691894531,6.97279998779297,7.71331008911133,10.9565828032138
10.0758965416753,-3.19196228027344,6.08784027099609,6.90753570556641,9.74497162066288
10.0859205416637,-2.64934066772461,4.89452178955078,6.15115859985352,8.29530600054023
10.095944541652,-1.99654815673828,3.65150665283203,5.46932647705078,6.87264414111631
10.1059685416694,-1.29690307617188,2.52030899047852,4.93209365844727,5.68853784835494
10.1159925416578,-0.608933715820313,1.6143928527832,4.38677764892578,4.71390312739825
10.1260165416752,-0.158520355224609,0.952319641113281,3.74131988525391,3.8638731715297
10.1360415416711,0.0200582885742188,0.527053985595703,3.06891815185547,3.11391182621808
10.1460655416595,0.0232017517089844,0.312849426269531,2.48647933959961,2.50619085287918
10.1560895416769,-0.225730590820313,0.303718414306641,2.06495590209961,2.09934324312082
10.1661135416653,-0.695902862548828,0.51971923828125,1.80928756713867,2.00696546590764
10.1761375416536,-1.13838272094727,0.899479522705078,1.67576522827148,2.21656665394949
10.186161541671,-1.52637588500977,1.26262435913086,1.53595596313477,2.50663207018884
10.1961855416594,-1.86646865844727,1.62546981811523,1.27235412597656,2.78293772917381
10.2062095416768,-1.98741714477539,1.92320068359375,1.01488952636719,2.94593423678338
10.2162335416651,-1.84820663452148,1.89655609130859,0.840053100585938,2.77821561135435
10.2262575416535,-1.62621826171875,1.53999755859375,0.777932281494141,2.37094009831816
10.2362815416709,-1.32549362182617,1.09272766113281,0.749042358398438,1.87404683441523
10.2463055416592,-1.10859466552734,0.608035583496094,0.755329284667969,1.47282440620399
10.2563295416767,-1.03659439086914,0.268092498779297,0.829874267578125,1.3546559781256
10.266353541665,-1.12670700073242,0.185164947509766,0.952918395996094,1.48721491140773
10.2763775416533,-1.42578506469727,0.290845184326172,1.17595458984375,1.8709150620309
10.2864015416708,-1.7387841796875,0.376766510009766,1.4226416015625,2.27798870785015
10.2964265416667,-1.85614013671875,0.320782928466797,1.57337814331055,2.45431796558257
10.3064505416551,-1.76228530883789,0.109272766113281,1.58011413574219,2.36946211810448
10.3164745416725,-1.62771514892578,-0.109721832275391,1.53371063232422,2.23914353944197
10.3264985416608,-1.66693359375,0.0378712463378906,1.58101226806641,2.29776013305305
10.3365225416783,-1.94295959472656,0.808319091796875,1.69253036499023,2.70057971134298
10.3465465416666,-2.38454132080078,2.13680648803711,1.77291320800781,3.6599454259664
10.3565705416549,-3.01068923950195,3.58175170898438,2.02019897460938,5.09650850079524
10.3665945416724,-3.73024291992188,4.85171081542969,2.53048782348633,6.6224752700933
10.3766185416607,-4.47045364379883,5.79445037841797,3.72380630493164,8.21141549100708
10.3866425416782,-5.16201553344727,6.95753173828125,5.35376678466797,10.1841283888881
10.3966665416665,-5.79714477539063,9.04419250488281,6.86128189086914,12.7468229295847
10.4066905416548,-6.10280914306641,10.2393072509766,8.9142626953125,14.8846152727451
10.4167145416723,-6.22405700683594,9.62992446899414,11.7230218505859,16.3982795503733
10.4267385416606,-6.15924179077148,8.67266510009766,14.1217835998535,17.6798232857891
10.436762541678,-6.04428085327149,8.32808166503906,15.4359008789063,18.5514773319055
10.4467865416664,-5.90701629638672,8.13258819580078,16.532670135498,19.3484111517573
10.4568105416547,-5.69894897460938,7.64804580688477,16.9170707702637,19.4205537389004
10.4668355416507,-5.4272639465332,7.0798274230957,16.7401387023926,18.9686951069782
10.4768595416681,-5.15782424926758,6.87894515991211,16.3855261230469,18.5042833913789
10.4868835416564,-5.12085113525391,7.30316299438477,15.8979899597168,18.2292454816769
10.4969075416739,-5.41019943237305,8.0522053527832,15.3728819274902,18.1778372667927
10.5069315416622,-5.80462921142578,8.59991638183594,14.9453709411621,18.1938559581426
10.5169555416505,-5.86854629516602,8.66787506103516,14.6946423339844,18.0417406869722
10.526979541668,-5.3790641784668,8.50561248779297,14.8115492248535,17.9070311796463
10.5370035416563,-4.55936874389649,8.04307434082031,15.4179382324219,17.9775334107201
10.5470275416737,-3.68653381347656,7.40165817260742,16.1698246765137,18.1614510799997
10.5570515416621,-2.97012359619141,6.94316162109375,16.6449366760254,18.2779387355954
10.5670755416504,-2.66236358642578,6.48661102294922,16.9109335327148,18.3069379028081
10.5770995416678,-2.7062223815918,6.24710906982422,16.8271078491211,18.1521781027749
10.5871235416562,-2.91773254394531,6.56519760131836,15.8836198425293,17.4328529519509
10.5971475416736,-3.381767578125,7.11006454467773,14.6579685974121,16.6386722181988
10.607171541662,-4.21613250732422,7.06156539916992,13.5773657226563,15.8740775849443
10.6171955416503,-4.914580078125,6.73269927978516,12.9805567932129,15.4265093782796
10.6272205416753,-5.13282623291016,6.41221572875977,12.2265747070313,14.729275092686
10.6372445416637,-4.69348983764648,5.80837142944336,11.417956237793,13.6431576318175
10.647268541652,-4.05641464233398,4.90050933837891,11.0793603515625,12.7758255046731
10.6572925416694,-3.63608871459961,4.08934616088867,11.1422296142578,12.4134271633928
10.6673165416578,-3.48475341796875,3.59672058105469,10.8906028747559,11.9868734997024
10.6773405416752,-3.39718551635742,3.32264053344727,10.2117645263672,11.2632563803292
10.6873645416636,-3.36664901733398,3.09885589599609,9.0867041015625,10.173761590455
10.6973885416519,-3.29210403442383,2.8406428527832,7.90057067871094,9.01810500270678
10.7074125416693,-3.14855255126953,2.5484504699707,6.78494064331055,7.90211379943665
10.7174365416577,-2.91084686279297,2.35116073608398,6.10954513549805,7.16432327775782
10.7274605416751,-2.48363525390625,2.18380874633789,5.69191360473633,6.58295869642293
10.7374845416634,-1.96226943969727,1.78848083496094,5.3646940612793,5.98574201098893
10.7475085416518,-1.45796813964844,1.22340591430664,5.00454299926758,5.35423605745101
10.7575325416692,-1.00066909790039,0.671054534912109,4.65591796875,4.80928528619877
10.7675565416575,-0.655786285400391,0.247136077880859,4.42719360351563,4.48231804941586
10.7775802916731,-0.451311492919922,0.104482727050781,4.34755920410156,4.37216991173282
10.7876042916614,-0.573906555175781,0.333656158447266,4.35279830932617,4.40312937441274
10.7976282916497,-1.0009684753418,0.853375396728516,4.18978729248047,4.3914126443094
10.8076532916748,-1.44524459838867,1.35228790283203,3.77200607299805,4.25974698028552
10.8176772916631,-1.89116729736328,1.6667839050293,3.25034088134766,4.11331960557904
10.8277012916515,-2.2415885925293,1.8250048828125,2.89408172607422,4.09036322074748
10.8377252916689,-2.36298614501953,1.82829803466797,2.65727416992188,3.9984350987929
10.8477492916572,-2.2894889831543,1.85194885253906,2.42540634155273,3.81497972183993
10.8577732916747,-2.0499870300293,2.01346298217773,2.10462341308594,3.56172987673095
10.867797291663,-1.78548706054688,2.17243240356445,1.66633483886719,3.26865391050501
10.8778212916513,-1.57861724853516,2.08456512451172,1.40318206787109,2.96755186834169
10.8878452916688,-1.39704483032227,1.77800262451172,1.38686599731445,2.65262603568761
10.8978692916571,-1.18448684692383,1.54643417358398,1.47323638916016,2.44231308437505
10.9078932916746,-0.824186096191406,1.51440078735352,1.61783569335938,2.36433601600952
10.9179172916629,-0.379760284423828,1.41425903320313,1.79177398681641,2.31404418852672
10.9279412916512,-0.21315673828125,1.33971405029297,2.05896835327148,2.465688587677
10.9379652916687,-0.220491485595703,1.39360198974609,2.69993545532227,3.04637398622538
10.947989291657,-0.229622497558594,1.55586456298828,3.73697891235352,4.05443614096
10.9580132916744,-0.374670867919922,1.66289199829102,4.69827987670899,4.99794176207934
10.9680372916628,-0.484991455078125,1.76827285766602,5.16635650634766,5.48208401626041
10.9780612916511,-0.468675384521484,2.20132232666016,5.42232421875,5.87086676182927
10.9880862916762,-0.458496551513672,3.01532958984375,5.8296272277832,6.57928455366148
10.9981102916645,-0.430504760742188,4.02048934936524,6.47987503051758,7.63796107403711
11.0081342916528,-0.682879943847656,5.07534576416016,7.46482681274414,9.0525741636151
11.0181582916703,-1.36620895385742,5.83681228637695,9.02952301025391,10.8382281930538
11.0281822916586,-2.04609512329102,6.3801823425293,10.4479733276367,12.4118241460507
11.038206291676,-2.84333724975586,7.0367170715332,11.0461294555664,13.4021240782865
11.0482302916644,-3.85568206787109,7.79743515014649,11.3461056518555,14.2968665305482
11.0582542916527,-4.72013442993164,8.37059326171875,12.2068157958984,15.5355351521843
11.0682782916701,-4.94960723876953,8.55216567993164,13.3678015136719,16.6233650908596
11.0783022916585,-4.58242080688477,7.93948974609375,14.8781607055664,17.4755184146382
11.0883262916759,-3.75688751220703,6.43736343383789,16.6221839904785,18.2167739287726
11.0983502916642,-2.99317565917969,4.67103652954102,17.8858561706543,18.7264928308625
11.1083742916526,-2.35954330444336,3.32234115600586,18.594931640625,19.0361991500917
11.11839829167,-1.87200714111328,2.59694961547852,18.396294708252,18.6727667214736
11.1284222916584,-1.62651763916016,2.68915786743164,17.2971304321289,17.5803256753835
11.1384462916758,-1.67965713500977,3.3816178894043,15.9587635803223,16.3993512875891
11.1484702916641,-1.93622360229492,4.38393356323242,14.5750410461426,15.3427395474752
11.1584942916525,-2.46851669311523,5.11980331420898,13.4384545898438,14.5910254061758
11.1685192916775,-3.20034484863281,5.53444107055664,12.9079577636719,14.4044305247508
11.1785432916658,-3.75194778442383,5.9348583984375,12.5180186462402,14.3527156738425
11.1885672916542,-4.02048934936524,6.31686401367188,11.772419128418,13.9519517527378
11.1985912916716,-3.95627288818359,6.76578048706055,10.9904452514648,13.4988061542609
11.20861529166,-3.54852081298828,6.97968566894531,10.3523222351074,12.9799301869074
11.2186392916774,-2.97715896606445,6.64318542480469,9.76748840332031,12.1819217616332
11.2286632916657,-2.6490412902832,6.03799392700195,9.48427734375,11.5510305667203
11.2386872916541,-2.61236755371094,5.56871978759766,9.43083847045899,11.2594768335102
11.2487112916715,-2.70981491088867,5.27922180175781,9.64968338012695,11.3282685799785
11.2587352916598,-2.69484603881836,5.00963241577149,10.1625169372559,11.6462595975745
11.2687592916773,-2.25820404052734,4.47135177612305,10.7346272277832,11.8458724420769
11.2787832916656,-1.79865966796875,3.83173187255859,11.1336973571777,11.9111948429024
11.2888072916539,-1.42653350830078,3.20393737792969,11.2589868164063,11.7925822746339
11.2988312916714,-1.17236206054688,2.70307891845703,10.942993927002,11.3327042018584
11.3088552916597,-1.08763824462891,2.43528579711914,10.1970950317383,10.5401290765878
11.3188792916771,-1.13823303222656,2.35939361572266,9.22845932006836,9.59305864110718
11.3289032916655,-1.32459548950195,2.35774703979492,8.12046340942383,8.55893978821337
11.3389272916538,-1.59433456420898,2.33244964599609,7.12667999267578,7.66627626502881
11.3489512916713,-1.89041885375977,2.36538116455078,6.51565063476563,7.1848740205089
11.3589752916596,-2.17033676147461,2.3903791809082,6.06613540649414,6.87184640810964
11.3690002916555,-2.3182292175293,2.44950622558594,5.60629165649414,6.54253571575017
11.379024291673,-2.12767547607422,2.62134887695313,5.14689697265625,6.15540586097531
11.3890482916613,-1.79087585449219,2.85830612182617,4.93284210205078,5.97579127949068
11.3990722916496,-1.62247604370117,2.9841943359375,4.89631805419922,5.95917568417838
11.4090962916671,-1.68175277709961,2.83240997314453,5.15093856811524,6.11416443937746
11.4191202916554,-1.87994064331055,2.44666213989258,5.42352172851563,6.23978528387281
11.4291442916729,-2.06989562988281,2.08561294555664,5.49207916259766,6.22873846019568
11.4391682916612,-2.09175018310547,1.83623153686523,5.566025390625,6.2231666966732
11.4491922916786,-1.98262710571289,1.65121627807617,5.66990936279297,6.22938180075508
11.459216291667,-1.88009033203125,1.6093034362793,5.74999282836914,6.25995325325312
11.4692402916553,-1.83278869628906,1.77770324707031,5.87992263793945,6.41036921464296
11.4792642916727,-1.91646469116211,2.08725952148438,6.05715408325195,6.68719708179399
11.4892882916611,-2.03022811889648,2.37286560058594,6.52837417602539,7.23684922845552
11.4993122916785,-2.33394653320313,2.48543151855469,7.50838623046875,8.24624399585464
11.5093362916668,-2.43124420166016,2.32601303100586,8.98446670532227,9.59384839194155
11.5193602916552,-1.93487640380859,1.91796157836914,10.3530706787109,10.7055310840939
11.5293842916726,-1.3126203918457,1.47099105834961,11.3809831237793,11.5504789446405
11.5394082916609,-0.614771575927735,0.909658355712891,12.0459004211426,12.0958314873666
11.5494322916784,0.0324824523925781,0.334853668212891,12.1304745483398,12.1351388478562
11.5594562916667,0.430804138183594,-0.0989442443847656,11.9056420898438,11.9138447085914
11.5694812916627,0.458795928955078,-0.158969421386719,11.3296398925781,11.3400399063169
11.579505291651,0.181273040771484,0.147742767333984,10.3798649597168,10.3824989488353
11.5895292916684,-0.316142578125,0.592617645263672,9.51421508789063,9.53789445013033
11.5995532916568,-0.93166259765625,1.16847015380859,8.81771347045899,8.94345506744049
11.6095772916742,-1.45033401489258,1.94206146240234,8.28377380371094,8.63110537008733
11.6196012916625,-1.75435180664063,2.58721984863281,8.03394332885742,8.62065555615787
11.6296252916509,-1.96765823364258,3.07834854125977,8.12899566650391,8.91226566098301
11.6396492916683,-2.02184555053711,3.39164703369141,8.25233917236328,9.14834579839962
11.6496732916567,-1.8344352722168,3.40691528320313,8.67386260986328,9.49779538049017
11.6596972916741,-1.38626724243164,3.1757958984375,9.12831756591797,9.76389256599119
11.6697212916624,-0.746048583984375,2.80337036132813,9.37216049194336,9.81085450708459
11.6797452916508,-0.252973937988281,2.38139785766602,9.64010330200195,9.93310843810066
11.6897692916682,-0.0824784851074219,2.12992080688477,9.8483203125,10.076347469282
11.6997932916565,-0.162561950683594,2.30370941162109,9.91597961425781,10.1813631283526
11.709817291674,-0.428109741210938,2.91593627929688,10.0417181396484,10.4652790470003
11.7198412916623,-0.868044891357422,3.56498657226563,10.3901934814453,11.0190177318904
11.7298652916506,-1.42892852783203,3.99534164428711,10.8730892944336,11.6717034916482
11.7398892916681,-1.87904251098633,4.2249641418457,11.415411529541,12.3163607915144
11.7499132916564,-1.98861465454102,4.31971710205078,12.158616027832,13.0555156082883
11.7599372916739,-1.78324172973633,4.28483963012695,12.9859455871582,13.7903801439704
11.7699612916622,-1.58744888305664,4.14128814697266,13.4538725280762,14.1660491130836
11.7799897083314,-1.4801220703125,4.01764526367188,13.7188215637207,14.3714404255433
11.7900137083197,-1.57517440795898,4.02677627563477,14.1889938354492,14.8331941149545
11.8000377083372,-1.86227737426758,4.2153840637207,14.738201751709,15.441895307813
11.8100617083255,-2.42271194458008,4.67582656860352,15.1094297790527,16.0008673363101
11.820085708343,-3.19196228027344,5.57800048828125,15.335160369873,16.6273827229567
11.8301097083313,-4.01135833740234,6.65920211791992,15.5941218566895,17.4244829202945
11.8401337083196,-4.54844146728516,7.54401214599609,15.9749299621582,18.242774633704
11.8501577083371,-4.44276123046875,7.86344787597656,16.1051591491699,18.4647797460259
11.8601817083254,-3.77410171508789,7.41348358154297,15.8461976623535,17.8970825254848
11.8702057083428,-2.87522094726563,6.66608779907227,15.3698881530762,16.998149425117
11.8802297083312,-2.02708465576172,6.1264599609375,14.6518313598633,16.0099577155116
11.8902537083195,-1.42443786621094,5.79639633178711,13.7355867004395,14.9764340106428
11.9002777083369,-1.34704879760742,5.62230834960938,13.0375881958008,14.2619633152139
11.9103017083253,-1.74117919921875,5.49282760620117,12.6480981445313,13.8988217770044
11.9203257083427,-2.33065338134766,5.31439865112305,12.1918469238281,13.5024408764158
11.9303497083311,-2.74349487304688,4.98882568359375,11.3350286865234,12.6845583740242
11.9403737083194,-2.83764907836914,4.29397064208984,10.0956060791016,11.3318885571422
11.9503977083368,-2.66745300292969,3.26785446166992,8.87549331665039,9.82693034062013
11.9604217083252,-2.33080307006836,2.07977508544922,8.14531173706055,8.72377273038401
11.9704457083426,-1.93846893310547,1.20948486328125,7.60762985229492,7.94333351991784
11.9804697083309,-1.61484191894531,0.803678741455078,6.94271255493164,7.17320511090093
11.9904937083193,-1.36381393432617,0.471669158935547,6.58031616210938,6.73669214349825
12.0005177083367,-1.00186660766602,-0.0158670043945313,6.36087249755859,6.43930799011679
12.0105427083327,-0.511785736083984,-0.481548614501953,6.04547836303711,6.08618290439399
12.020566708321,-0.155526580810547,-0.652792510986328,5.71751037597656,5.75675702797487
12.0305907083384,0.00583786010742188,-0.508043518066406,5.24434432983399,5.26889834279632
12.0406147083268,-0.00209564208984375,-0.226628723144531,4.63331497192383,4.63885466456144
12.0506387083442,-0.178578643798828,0.0077838134765625,4.01285522460938,4.01683432237976
12.0606627083325,-0.490529937744141,0.18920654296875,3.53953948974609,3.57837372771452
12.0706867083209,-0.669258270263672,0.333207092285156,3.32623306274414,3.40921691688249
12.0807107083383,-0.893042907714844,0.454155578613281,3.26351348876953,3.41383995172387
12.0907347083266,-1.19855758666992,0.563877410888672,3.10244842529297,3.3733787594454
12.1007587083441,-1.43776016235352,0.736767883300781,2.82672180175781,3.2558159258237
12.1107827083324,-1.58864639282227,0.936153259277344,2.49276626586914,3.10065540531965
12.1208067083207,-1.55451736450195,0.950673065185547,2.24952209472656,2.89493577961073
12.1308307083382,-1.36201766967773,0.717757415771484,1.96915512084961,2.49956790873494
12.1408547083265,-1.07671096801758,0.366138610839844,1.81662231445313,2.14324068278999
12.150878708344,-0.68737060546875,0.0223036193847656,1.68609375,1.82095797164273
12.1609027083323,-0.437091064453125,-0.24189697265625,1.58220977783203,1.65920177346588
12.1709267083206,-0.572858734130859,-0.481548614501953,1.66274230957031,1.82339468723422
12.1809507083381,-0.877325592041016,-0.518372039794922,1.90942932128906,2.16433132839907
12.1909747083264,-1.28522735595703,-0.27542724609375,2.27107727050781,2.6240162905379
12.2009987083438,-1.74043075561523,0.0339793395996094,2.81235168457031,3.30750295666028
12.2110227083322,-1.99969161987305,0.291294250488281,3.2907568359375,3.86169644951897
12.2210467083205,-2.11076065063477,0.761466522216797,3.6452197265625,4.28051032514179
12.2310707083379,-2.26883193969727,1.74058044433594,3.9517822265625,4.87788903317515
12.2410947083263,-2.75367370605469,3.22160064697266,4.3158251953125,6.04878307798236
12.2511197083222,-3.83352813720703,4.96517486572266,5.23476425170898,8.17016867616161
12.2611437083397,-5.61272827148438,7.00857559204102,7.23161178588867,11.5290528449078
12.271167708328,-7.36423599243164,8.79570922851563,9.66330505371094,14.9991978834168
12.2811917083163,-8.26117080688477,9.52888458251953,11.7665812683105,17.2481598795715
12.2912157083338,-8.03334457397461,9.3453662109375,13.332924041748,18.1559179928684
12.3012397083221,-6.83179321289063,8.21521636962891,14.5997396850586,18.0918649501645
12.3112637083395,-5.31335083007813,6.65545989990234,15.6020553588867,17.7750098437235
12.3212877083279,-3.88771545410156,5.52905227661133,16.2213175964355,17.5731583699115
12.3313117083453,-2.73571105957031,5.07369918823242,16.1934754943848,17.1888099367398
12.3413357083336,-2.1029768371582,4.98253875732422,15.4550610351563,16.3739767816577
12.351359708322,-1.95164154052734,5.13821502685547,14.5072320556641,15.5135405463035
12.3613837083394,-2.06405776977539,5.24913436889649,14.2102496337891,15.2887193954988
12.3714077083278,-1.94295959472656,5.20796997070313,14.5880639648438,15.6112028186446
12.3814317083452,-1.40647521972656,5.31873962402344,14.4924128723145,15.5015223314837
12.3914557083335,-1.07521408081055,5.52171752929688,14.4332858276367,15.4908098424575
12.4014797083219,-0.972228240966797,5.41693542480469,14.6124632263184,15.6144964276644
12.4115037083393,-0.805624694824219,4.98762817382813,14.4551403808594,15.3126271220724
12.4215277083276,-0.681083679199219,4.59110275268555,14.1330102539063,14.8756202660866
12.4315517083451,-0.377215576171875,4.21733001708984,13.440849609375,14.0920049065344
12.4415757083334,-0.070653076171875,3.72934478759766,12.2978265380859,12.851052173375
12.4515997083217,0.170794830322266,3.16935928344727,11.1583959960938,11.6010262626752
12.4616237083392,0.464035034179688,2.66580642700195,10.2699934387207,10.6204810460994
12.4716477083275,0.760269012451172,2.22512283325195,9.50762878417969,9.79408932428711
12.4816717083449,1.02132614135742,1.76183624267578,8.65455276489258,8.8909199520261
12.4916957083333,1.13883178710938,1.3123210144043,7.67618728637695,7.87038598416323
12.5017207083292,0.997525634765625,1.29226272583008,7.61870681762695,7.79164256864621
12.5117447083176,0.643811187744141,1.39330261230469,7.52275634765625,7.6777371719226
12.521768708335,0.399219818115234,1.42503662109375,7.17008972167969,7.32122205998226
12.5317927083233,0.346679077148438,1.34061218261719,6.66474060058594,6.80706946341909
12.5418167083408,0.377664642333984,1.22011276245117,6.26267669677734,6.39159018895325
12.5518407083291,0.440084838867188,1.11892318725586,5.96629302978516,6.08623991325042
12.5618647083174,0.456400909423828,1.06413711547852,5.3646940612793,5.48822666822237
12.5718887083349,0.439635772705078,0.967887268066406,4.67313217163086,4.7925201793898
12.5819127083232,0.437540130615234,0.8957373046875,4.35294799804688,4.46564026300909
12.5919367083407,0.368383941650391,1.00231567382813,4.37450317382813,4.50295696807106
12.601960708329,0.127684478759766,1.39584732055664,4.38153854370117,4.60027967392856
12.6119847083173,-0.309406585693359,2.13605804443359,4.40638687133789,4.90659980682742
12.6220087083348,-1.05785018920898,3.01053955078125,4.6848078918457,5.66831724527901
12.6320327083231,-1.93352920532227,3.88157821655273,5.26066040039063,6.8176046003922
12.6420567083405,-2.67044677734375,4.73435485839844,5.99772766113281,8.09432758251012
12.6520807083289,-3.01967056274414,5.47306869506836,7.03057983398438,9.40754718566261
12.6621047083172,-3.05080581665039,5.87483322143555,8.73254058837891,10.9580265850323
12.6721287083346,-2.65547790527344,5.63263687133789,10.8139622497559,12.4787796105587
12.682152708323,-1.80404846191406,4.93299179077148,12.1598135375977,13.2457564574431
12.6921767083404,-0.936901702880859,4.19876861572266,13.3431028747559,14.0194806257421
12.7022007083287,-0.380059661865234,3.35527267456055,14.2404867553711,14.6353600262217
12.7122247083171,-0.0202079772949219,2.73137008666992,14.8164889526367,15.0661586277428
12.7222487083345,0.104033660888672,2.57060440063477,14.9745602416992,15.1939555224912
12.7322727083229,0.0362246704101563,2.72837631225586,14.4255020141602,14.6812961923859
12.7422967083403,-0.150287475585938,2.99467254638672,13.4200428771973,13.7509345431943
12.7523217083362,-0.366737365722656,3.27938049316406,12.2845042419434,12.719979449067
12.7623457083246,-0.594862976074219,3.48295715332031,11.2152777099609,11.7587119449247
12.772369708342,-0.895437927246094,3.61198883056641,10.2011366271973,10.8587043831404
12.7823937083303,-1.09467361450195,3.70524490356445,9.38638092041016,10.1504333356127
12.7924177083187,-1.24151824951172,3.76257568359375,8.55111785888672,9.42443419920862
12.8024417083361,-1.41021743774414,3.82275054931641,7.74130187988281,8.74813636036234
12.8124657083245,-1.54149444580078,3.98186965942383,7.04360275268555,8.23673666258149
12.8224897083419,-1.57367752075195,4.24711807250977,6.54034927368164,7.95554155811577
12.8325137083302,-1.45482467651367,4.57598419189453,6.17346221923828,7.82098343792034
12.8425377083186,-1.20738922119141,4.8042594909668,5.96943649291992,7.75711737896223
12.852561708336,-0.8669970703125,4.83359848022461,5.81690368652344,7.61260314782336
12.8625857083243,-0.518072662353516,4.56835006713867,5.74475372314453,7.35801718936474
12.8726097083418,-0.210013275146484,4.06973693847656,5.87438415527344,7.14949323573818
12.8826337083301,-0.0212557983398438,3.45481567382813,6.0355989074707,6.95447031203334
12.8926577083184,-0.0940045166015625,2.85576141357422,6.2029508972168,6.82940772934839
12.9026817083359,-0.186362457275391,2.37780532836914,6.46535522460938,6.89126311538648
12.9127057083242,-0.207767944335938,2.0739372253418,6.69572616577149,7.01264087347619
12.9227297083416,-0.130378875732422,1.88038970947266,6.74347686767578,7.00195289727132
12.93275370833,0.017962646484375,1.69687133789063,6.77266616821289,6.98202707099299
12.9427777083183,0.0890647888183594,1.51155670166016,6.91861267089844,7.08236807069905
12.9528017083358,0.0473016357421875,1.47608047485352,7.25077194213867,7.39964490836507
12.9628257083241,-0.0327818298339844,1.64732437133789,7.83410888671875,8.00549900266915
12.9728497083415,-0.213306427001953,1.83338745117188,8.45307174682617,8.65223850427771
12.9828737083299,-0.456101531982422,1.91706344604492,9.13819702148438,9.34825147645827
12.9928977083182,-0.749192047119141,2.07513473510742,10.197244720459,10.4331813355872
13.0029217083356,-1.25768463134766,2.58736953735352,12.2725291442871,12.6052062003019
13.0129467083316,-2.0547770690918,3.41499847412109,14.8685806274414,15.3934730732425
13.0229707083199,-2.88480102539063,4.08515487670899,17.3818542480469,18.0869960032931
13.0329947083374,-3.11771667480469,4.03126693725586,19.4065438842773,20.064526306797
13.0430187083257,-2.55728210449219,3.19884796142578,20.9577680969238,21.3541650187197
13.0530427083431,-1.48790588378906,1.97065200805664,21.9057467651367,22.0444794584533
13.0630667083315,-0.478554840087891,1.01638641357422,21.832998046875,21.8618814330221
13.0730907083198,-0.163759460449219,0.833167419433594,21.230950012207,21.2479228050773
13.0831147083372,-0.862057342529297,1.52667526245117,20.419188079834,20.4943192631135
13.0931387083256,-2.17138458251953,2.83779876708984,19.6120664978027,19.9349232544782
13.103162708343,-3.63683715820313,4.34696044921875,18.1945143127441,19.0568360631824
13.1131867083313,-4.47973434448242,5.39927215576172,16.6864004516602,18.1012739784327
13.1232107083197,-4.54005889892578,5.64865356445313,15.6727084350586,17.2671135858684
13.1332347083371,-4.16583709716797,5.37502258300781,15.0627268981934,16.526669600907
13.1432587083254,-3.62097015380859,5.07848922729492,14.3418260192871,15.6393878158329
13.1532827083429,-3.07730072021484,4.91233474731445,13.2944540405273,14.5032175956924
13.1633067083312,-2.6538313293457,4.70052520751953,12.20501953125,13.3454209266451
13.1733307083196,-2.28395050048828,4.29561721801758,11.2187205505371,12.2281825290373
13.183354708337,-1.75914184570313,3.7507502746582,10.1869161987305,10.9970891283153
13.1933787083253,-1.08524322509766,3.18462753295898,9.15107025146484,9.74995857060663
13.2034027083428,-0.474962310791016,2.65817230224609,8.0087956237793,8.45176174111449
13.2134267083311,-0.102387084960938,2.19129318237305,6.85664154052734,7.19901258101183
13.2234507083194,0.0193098449707031,1.83144149780273,5.91465042114258,6.19173969368132
13.2334747083369,-0.134869537353516,1.54284164428711,5.38355484008789,5.60189368407561
13.2434987083252,-0.357606353759766,1.34659973144531,5.26230697631836,5.44362818844076
13.2535227083426,-0.422271881103516,1.13658645629883,5.2546728515625,5.39274782380565
13.263546708331,-0.343535614013672,0.949325866699219,5.17563720703125,5.27318279771204
13.2735707083193,-0.228574676513672,0.840053100585938,5.04211486816406,5.11672335956406
13.2835957083444,-0.115859069824219,0.826431427001953,4.83539474487305,4.90687829137252
13.2936197083327,-0.0541873168945313,0.92208251953125,4.44665313720703,4.54157423816571
13.303643708321,-0.0252973937988281,1.10125991821289,4.0094123840332,4.15798040289202
13.3136677083385,-0.100740509033203,1.34076187133789,3.60764785766602,3.85005378023683
13.3236917083268,-0.318687286376953,1.50661697387695,3.18432815551758,3.53714603805023
13.3337157083442,-0.497415618896484,1.62127853393555,2.73601043701172,3.21896248719357
13.3437397083326,-0.493074645996094,1.62322448730469,2.32960556030273,2.88184704821459
13.3537637083209,-0.458496551513672,1.48296615600586,2.00014068603516,2.53179194870785
13.3637877083384,-0.426463165283203,1.31950607299805,1.79985717773438,2.27210320370005
13.3738117083267,-0.401165771484375,1.16637451171875,1.58759857177734,2.01043097441998
13.3838357083441,-0.384700012207031,1.01833236694336,1.36815490722656,1.74838289831624
13.3938597083325,-0.396076354980469,0.853824462890625,1.32893646240234,1.62848543546067
13.4038837083208,-0.508791961669922,0.584384765625,1.43805953979492,1.63352075424517
13.4139077083382,-0.591869201660156,0.293389892578125,1.54897888183594,1.68396031940024
13.4239317083266,-0.610580291748047,0.0746946716308594,1.79955780029297,1.90178754419006
13.433955708344,-0.650547180175781,0.106278991699219,2.3709196472168,2.46084677118871
13.4439797083323,-0.846190338134766,0.5125341796875,3.31276107788086,3.45732777341445
13.4540037083207,-1.18852844238281,1.37998031616211,4.37270690917969,4.73682501734396
13.4640277083381,-1.56200180053711,2.41582626342773,5.68502792358398,6.37146832777799
13.4740517083264,-1.98337554931641,3.3867073059082,7.26544143676758,8.25773602245903
13.4840757083439,-2.66685424804688,4.4021955871582,9.68785400390625,10.9702302969866
13.4940997083322,-3.42817108154297,5.15033981323242,12.8209886169434,14.2357334293631
13.5041237083205,-3.78532836914063,5.05049743652344,15.9006843566895,17.1075421446104
13.514147708338,-3.53474945068359,4.39560928344727,18.4395547485352,19.2829721250657
13.5241717083263,-3.04945861816406,4.20774993896484,19.9156352233887,20.5824411517155
13.5341957083438,-2.73436386108398,4.3878254699707,20.582049407959,21.2214635666674
13.5442197083321,-2.17602493286133,4.05431900024414,20.7109313964844,21.2159201161311
13.5542437083204,-1.31037506103516,3.29494812011719,20.012783203125,20.3244989470867
13.5642677083379,-0.548758850097656,2.69454666137695,18.2434625244141,18.4495431614335
13.5742917083262,-0.157023468017578,2.52524871826172,16.4648611450195,16.6581268449776
13.5843167083221,-0.173189849853516,2.63676681518555,15.031142578125,15.2616441173839
13.5943407083396,-0.338296508789063,2.76699600219727,13.5423385620117,13.8262664928817
13.6043647083279,-0.469573516845703,2.75876312255859,11.9839292907715,12.3063331053699
13.6143887083163,-0.587977294921875,2.57973541259766,10.5820944213867,10.9078629640044
13.6244127083337,-0.669108581542969,2.42705291748047,9.52544174194336,9.85252924569635
13.634436708322,-0.69216064453125,2.42660385131836,8.81307312011719,9.1672106133547
13.6444607083395,-0.623752899169922,2.43618392944336,8.32299224853516,8.69461096234198
13.6544847083278,-0.47660888671875,2.3233186340332,8.0614860534668,8.40312578130215
13.6645087083452,-0.35685791015625,2.1986279296875,7.93589721679688,8.24255888524962
13.6745327083336,-0.27063720703125,1.9925065612793,7.65088989257813,7.91071697401221
13.6845567083219,-0.459993438720703,1.70181106567383,6.94361068725586,7.16390146799143
13.6945807083393,-0.290845184326172,1.56724090576172,6.41221572875977,6.60737054584444
13.7046047083277,0.158670043945313,1.88577850341797,6.08664276123047,6.37405340812565
13.7146287083451,0.451910247802734,2.12498107910156,5.72349792480469,6.12194380518576
13.7246527083335,0.536634063720703,2.12258605957031,5.18012786865234,5.62379519845952
13.7346767083218,0.419577484130859,2.24383392333984,4.80261291503906,5.31751133072796
13.7447007083392,-0.0984951782226563,2.55189331054688,5.42561737060547,5.9965977537903
13.7547247083276,-0.880768432617188,2.77567794799805,6.16103805541992,6.81458223394729
13.764748708345,-1.71558242797852,2.70682113647461,6.17585723876953,6.9578241114386
13.7747693333367,-2.00493072509766,2.53527786254883,5.27278518676758,6.18462971232445
13.7847933333251,-1.36785552978516,2.43962677001953,5.77948150634766,6.42068641264891
13.7948173333425,-1.13823303222656,2.25865310668945,7.37950424194336,7.80090835408734
13.8048413333308,-0.543370056152344,2.60443405151367,8.32209411621094,8.73702341908728
13.8148653333192,4.52748504638672,5.74505310058594,8.41340423583984,11.1485033439227
13.8248893333366,2.67089584350586,4.84213073730469,13.7580400085449,14.8277975289903
13.8349133333249,0.287701721191406,2.69499572753906,19.1784182739258,19.3689829815992
13.8449373333424,0.693358154296875,1.00426162719727,18.1913708496094,18.2322587831022
13.8549613333307,-0.588126983642578,-0.426014099121094,14.8566055297852,14.8743439932382
13.8649853333191,-1.52667526245117,0.00718505859375,13.9948475646973,14.0778743900193
13.8750093333365,-2.09713897705078,0.836161193847656,13.4839599609375,13.6716617007344
13.8850343333324,-2.34771789550781,0.646954650878906,12.7341691589355,12.9649293791199
13.8950583333208,-3.06891815185547,-0.395028533935547,12.6612707519531,13.0338821238983
13.9050823333382,-3.3768278503418,-0.675245819091797,12.3029159545898,12.7757842903184
13.9151063333265,-2.17527648925781,0.672701110839844,13.0372888183594,13.2346233162324
13.925130333344,-0.820294189453125,1.26816284179688,11.8373840332031,11.9333474054893
13.9351543333323,-0.176183624267578,0.672551422119141,10.1866168212891,10.2103148016417
13.9451783333207,-0.183218994140625,0.320483551025391,8.83881958007813,8.84652533345517
13.9552023333381,0.0639170837402344,0.476758575439453,7.16155746459961,7.17769388115788
13.9652263333264,0.348175964355469,0.72090087890625,7.99816772460938,8.03813482907234
