Time (s),Acceleration x (m/s^2),Acceleration y (m/s^2),Acceleration z (m/s^2),Absolute acceleration (m/s^2)
0.00725599998258986,-1.96720916748047,4.53437072753906,11.3667626953125,12.3949071789558
0.0172789999924134,-1.94595336914063,4.60262878417969,10.7509432983398,11.8555349117595
0.027302000002237,-1.93637329101563,4.61445419311523,10.2318228149414,11.3900363098136
0.0373249999829568,-1.95643157958984,4.43916870117188,10.2165545654297,11.3098112482695
0.0473479999927804,-1.80749130249023,4.20505554199219,10.3017274475098,11.2727594369166
0.057371000002604,-1.48386428833008,4.07512573242188,10.2225421142578,11.1044527212737
0.0673939999833237,-0.995130615234375,3.88157821655273,10.075697479248,10.8432750627252
0.0774169999931473,-0.425864410400391,3.49568069458008,9.74653198242188,10.3632055706175
0.0874400000029709,0.0990939331054688,3.0608349609375,9.2257649230957,9.72076481980192
0.0974629999836907,0.41433837890625,2.83914596557617,8.73703125,9.19609379951938
0.107485999993514,0.516276397705078,2.72463409423828,8.04621780395508,8.51068700017787
0.117509000003338,0.404009857177734,2.62299545288086,7.25795700073242,7.72795373530479
0.127531999984058,0.0643661499023438,2.62314514160156,6.53032012939453,7.03776345350826
0.137556000001496,-0.414188690185547,2.79229339599609,6.09008560180664,6.71249561025805
0.147578999982215,-0.893791351318359,3.11577072143555,5.78412185668945,6.6304566827089
0.157601999992039,-1.32235015869141,3.50735641479492,5.38475234985352,6.56092347401242
0.167625000001863,-1.65989822387695,3.91944946289063,5.08402770996094,6.63058699976361
0.177647999982582,-1.80883850097656,4.25804534912109,4.98673004150391,6.80222929815105
0.187670999992406,-1.76453063964844,4.41671539306641,5.0680110168457,6.95022869468892
0.19769400000223,-1.57502471923828,4.44335998535156,5.28760437011719,7.0839897515819
0.207716999982949,-1.2404704284668,4.38692733764649,5.46034515380859,7.11331621316047
0.217739999992773,-0.763562164306641,4.27331359863281,5.53084854125977,7.03096877232263
0.227763000002597,-0.32811767578125,4.21074371337891,5.65673675537109,7.05951092842035
0.237785999983316,-0.144150238037109,4.27391235351563,5.85013458251953,7.24645987570832
0.24780899999314,-0.0745449829101563,4.52419189453125,6.12062210083008,7.61156253039998
0.257832000002963,-0.113164672851563,4.89586898803711,6.33811981201172,8.00962559316106
0.267854999983683,-0.309855651855469,5.2498828125,6.38033203125,8.26836845447543
0.277877999993507,-0.483644256591797,5.4462744140625,6.41715545654297,8.43064059924543
0.28790100000333,-0.664168853759766,5.48055313110352,6.66593811035156,8.65518999099329
0.29792399998405,-0.887205047607422,5.5564453125,7.0269873046875,9.00220905597857
0.307946999993874,-1.07057373046875,5.75912384033203,7.35345840454102,9.40143531743773
0.317970000003697,-1.09841583251953,6.02317474365234,7.54161712646484,9.71396624535462
0.327992999984417,-1.03779190063477,6.2605810546875,7.81345184326172,10.0658788428187
0.338015999994241,-0.936153259277344,6.41835296630859,8.28482162475586,10.5218775453338
0.348039000004064,-0.793948974609375,6.53645736694336,8.73852813720703,10.9415494281619
0.358061999984784,-0.528850250244141,6.61249923706055,9.06395141601563,11.2320988252063
0.368084999994608,-0.215402069091797,6.58345962524414,9.18534896850586,11.3030515508787
0.378108000004431,-0.0308358764648438,6.41610763549805,9.21857986450195,11.2316340200246
0.388130999985151,-0.00404159545898438,6.20983657836914,9.34267181396485,11.2181818173891
0.398153999994975,-0.142803039550781,6.08035583496094,9.43398193359375,11.2245772709364
0.408177000004798,-0.287851409912109,6.05326217651367,9.40164916992188,11.1855195912435
0.418199999985518,-0.322130126953125,6.12316680908203,9.33054702758789,11.1649472647462
0.428222999995342,-0.293240203857422,6.16672622680664,9.46002777099609,11.2963103534544
0.438246000005165,-0.26105712890625,6.00431396484375,10.0694105529785,11.7265922542487
0.448268999985885,-0.152832183837891,5.74505310058594,10.995384979248,12.4067515348234
0.458291999995708,0.0688568115234375,5.58698181152344,11.8923197937012,13.1394968358169
0.468315000005532,0.398022308349609,5.59177185058594,12.5229583740234,13.7204526391979
0.478337999986252,0.791553955078125,5.57844955444336,12.7251878356934,13.9167547419988
0.488360999996075,1.28073669433594,5.36229904174805,12.4585922241211,13.6239149182708
0.498384000005899,1.78488830566406,4.94017684936523,12.1306242370605,13.2190475431274
0.508406999986619,2.06046524047852,4.35833679199219,11.6273707580566,12.587150882744
0.518429999996442,2.13066925048828,3.81960708618164,10.8515341186523,11.699783864502
0.528453000006266,2.0549267578125,3.59043365478516,10.2520307922363,11.0552283185084
0.538475999986986,1.73159912109375,3.64177688598633,9.79892303466797,10.596219469359
0.548498999996809,1.38806350708008,3.84026412963867,9.4796369934082,10.3217181908765
0.558522000006633,1.07985443115234,4.07362884521484,8.96455810546875,9.90574780556073
0.568544999987353,0.894539794921875,4.19457733154297,8.35322937011719,9.38994788828891
0.578569000004791,0.928219757080078,4.19158355712891,7.88620056152344,8.9790380292323
0.588591999985511,1.0584489440918,4.04144577026367,7.67304382324219,8.73665837689824
0.598614999995334,1.11473190307617,3.81391891479492,7.5106315612793,8.49695187426944
0.608638000005158,1.09632019042969,3.69027603149414,7.31708404541016,8.26799698089929
0.618660999985877,1.06683151245117,3.63848373413086,7.06096664428711,8.01460811962936
0.628679583314806,1.05635330200195,3.59761871337891,6.71653289794922,7.69224004271439
0.63870258332463,0.990639953613281,3.49298629760742,6.78329406738281,7.69385463844743
0.648725583334453,0.796493682861328,3.32982559204102,6.74332717895508,7.56271129309347
0.658748583315173,0.727936248779297,3.26351348876953,6.56370071411133,7.36631376864257
0.668771583324997,0.839005279541016,3.37098999023438,6.64318542480469,7.49662697229197
0.67879458333482,0.328866119384766,3.47352676391602,5.69296142578125,6.67707652341602
0.68881758331554,0.235460357666016,3.52172653198242,4.92984832763672,6.06311832967193
0.698840583325364,-0.00434097290039063,3.80568603515625,5.38669830322266,6.59543657782947
0.708863583335187,-0.2826123046875,4.12841491699219,5.94159439086914,7.24059551053724
0.718886583315907,-0.183817749023438,4.28424087524414,5.98605194091797,7.36351320236044
0.728909583325731,-0.0243992614746094,4.26059005737305,6.006708984375,7.36435847741797
0.738932583335554,0.0411643981933594,4.10551254272461,6.09712097167969,7.35063343457174
0.748955583316274,0.0679586791992188,3.93426864624023,6.12930404663086,7.28364306229465
0.758978583326098,0.105530548095703,3.84505416870117,6.19935836791992,7.2957263127619
0.769001583335921,0.184566192626953,3.84370697021484,6.27330459594727,7.35951754572758
0.779024583316641,0.292342071533203,3.90418121337891,6.35308868408203,7.46256193686192
0.789047583326465,0.347577209472656,4.00387390136719,6.72551422119141,7.83481701598971
0.799070583336288,0.3400927734375,4.06030654907227,7.29657669067383,8.35713968830653
0.809093583317008,0.103135528564453,4.09967468261719,7.83695297241211,8.8451004139209
0.819116583326832,-0.375269622802734,4.31522644042969,8.42403213500977,9.47239800333892
0.829139583336655,-0.794098663330078,4.8235693359375,9.31632659912109,10.5209959189798
0.839162583317375,-0.754131774902344,5.40061935424805,9.34476745605469,10.8194308053213
0.849185583327198,-0.311202850341797,5.77094924926758,8.68853210449219,10.435099069126
0.859208583337022,0.0769400024414063,6.00985244750977,9.5514875793457,11.2851743975541
0.869231583317742,0.0928070068359375,5.82393905639649,10.3030746459961,11.8355492662616
0.879254583327565,0.114212493896484,5.3167936706543,10.4554577636719,11.7302146816671
0.8892785833159,0.120200042724609,4.60921508789063,10.1837727355957,11.1789328161042
0.899301583325723,-0.135019226074219,3.83562377929688,10.1096768188477,10.8136860204679
0.909324583335547,-0.690214691162109,3.11666885375977,10.9205406188965,11.3775317390399
0.919347583316267,-1.55541549682617,2.52000961303711,12.5407713317871,12.8856785391278
0.92937058332609,-2.50653762817383,2.31448699951172,13.871953125,14.2853303936086
0.939393583335914,-3.28851150512695,2.39307357788086,13.6120935058594,14.2066955581079
0.949416583316634,-3.69865859985352,2.42196350097656,12.3913819885254,13.1564558382524
0.959439583326457,-3.95507537841797,2.37331466674805,11.3832284545898,12.2822283729685
0.969462583336281,-4.25969192504883,2.32466583251953,11.1530072021484,12.1630019395043
0.979485583317,-4.37540130615234,2.17617462158203,11.8209182739258,12.7911681019495
0.989508583326824,-4.19712203979492,1.95149185180664,12.898826751709,13.7041557724365
0.999531583336648,-3.74446334838867,1.73010223388672,13.3935479736328,14.0143279121451
1.00955458331737,-3.01323394775391,1.59343643188477,13.2203581237793,13.6527098924474
1.01957758332719,-2.09489364624023,1.53475845336914,12.5187670898438,12.78528812147
1.02960058333701,-1.28462860107422,2.00597854614258,11.5198942565918,11.7635957195638
1.03962358331773,-1.52368148803711,3.17819091796875,10.1536853027344,10.7480150732593
1.04964658332756,-2.55279144287109,5.2976335144043,8.97413818359375,10.7292507260279
1.05966958333738,-3.04930892944336,7.58772125244141,8.86905670166016,12.0636630228632
1.0696925833181,-2.56880813598633,7.72588394165039,9.13999328613281,12.2404058425329
1.07971558332792,-2.10103088378906,5.09735000610352,9.11140274047852,10.6496463677701
1.08973858333775,-1.73129974365234,2.75681716918945,9.14657958984375,9.70862286321055
1.09976158331847,-1.61005187988281,2.36493209838867,9.10990585327149,9.5485891911514
1.10978458332829,-1.64223495483398,3.04302200317383,9.11634246826172,9.75010864335936
1.11980758333812,-1.55092483520508,3.75284591674805,9.30420181274414,10.1517186570344
1.12983058331884,-1.2120295715332,3.72739883422852,9.65552124023438,10.4207297331951
1.13985358332866,-0.846789093017578,3.24734710693359,9.84547622680664,10.4017170281439
1.14987658333848,-0.484692077636719,2.79034744262695,9.69533843994141,10.1005223986536
1.1598995833192,-0.259859619140625,2.49710723876953,9.09793075561523,9.43797730541585
1.16992258332903,-0.212707672119141,2.42061630249023,8.03349426269531,8.39295287169053
1.17994658331736,-0.276924133300781,2.57569381713867,6.92849212646484,7.39695131535527
1.18996958332718,-0.502505035400391,2.86668869018555,6.20369934082031,6.85246677250863
1.19999258333701,-0.769400024414063,3.07789947509766,5.87019287109375,6.67267606888081
1.21001558331773,-0.818946990966797,3.18851943969727,5.76106979370117,6.63530372773071
1.22003858332755,-0.825084228515625,3.18597473144531,5.65149765014649,6.53992543253855
1.23006158333737,-1.04333038330078,3.22728881835938,5.02834350585938,6.06532520304923
1.24008458331809,-1.26217529296875,3.95402755737305,4.63975158691406,6.22532852007971
1.25010758332792,-1.80195281982422,4.74647964477539,4.84482513427734,7.01772281903931
1.26013058333774,-2.34202972412109,5.00993179321289,5.17653533935547,7.57502725545645
1.27015358331846,-2.52345245361328,4.89886276245117,5.46303955078125,7.75960500182695
1.28017658332828,-2.45085342407227,4.72103256225586,5.4416340637207,7.60961314677772
1.29019958333811,-2.32152236938477,4.62268707275391,5.316943359375,7.41812567775458
1.30022258331883,-2.20132232666016,4.65172668457031,5.30841110229492,7.39348426418586
1.31024558332865,-2.11585006713867,4.80021789550781,5.4751643371582,7.58263396649563
1.32026858333847,-1.92604476928711,5.0344807434082,5.78606781005859,7.90785846557982
1.33029158331919,-1.75584869384766,5.13432312011719,6.17346221923828,8.21924049470624
1.34031458332902,-1.72351593017578,5.18491790771484,6.60681106567383,8.57343766110315
1.35033758333884,-1.90104675292969,5.29419067382813,6.95573547363281,8.94565199562486
1.36036058331956,-2.14054870605469,5.3887939453125,7.12338684082031,9.18497082368807
1.37038358332939,-2.37496124267578,5.37966293334961,7.04270462036133,9.17501512534593
1.38040658333921,-2.8693830871582,5.34852767944336,5.58847869873047,8.25052736525402
1.39042958331993,-3.26336380004883,5.74759780883789,7.33250198364258,9.87167712213835
1.40045258332975,-3.37518127441406,5.70927749633789,8.48735046386719,10.7713887712705
1.41047558333958,-3.36380493164063,5.57006698608399,7.5537419128418,9.96994717806546
1.42049958332791,-3.44912750244141,5.79864166259766,8.29440170288086,10.6919514246962
1.43052258333773,-3.51648742675781,6.26252700805664,9.4791879272461,11.8928521435875
1.44054558331845,-3.45945602416992,6.50232833862305,9.72018676757813,12.1954967345749
1.45056858332828,-3.27429107666016,6.14996109008789,10.9250312805176,12.9575966886062
1.4605915833381,-3.745810546875,4.32630340576172,10.1328785705566,11.6371485312095
1.47061458331882,-3.39254516601563,5.5374348449707,10.2056272888184,12.0965852918923
1.48063758332864,-2.99422348022461,5.6667658996582,10.431208190918,12.242863812578
1.49066058333847,-2.83540374755859,5.0820817565918,11.1106452941895,12.5424681879464
1.50068358331919,-2.43139389038086,4.77417205810547,12.0195552062988,13.1595631556614
1.50588537502335,-1.39943984985352,6.13544128417969,12.616962890625,14.0992845289533
1.51590837500407,-0.804127807617188,6.68794235229492,13.6785552978516,15.2472315347733
1.5259313750139,0.267643432617188,6.11508361816406,13.3643586730957,14.6993864976505
1.53595437502372,1.26307342529297,5.1491423034668,12.3106997680664,13.4038184752892
1.54597837501206,1.64103744506836,3.9324723815918,11.6182397460938,12.3750085949793
1.55600137502188,1.57966506958008,3.17908905029297,11.268716583252,11.8146486344454
1.5660243750026,1.39180572509766,3.32967590332031,11.0079588317871,11.5844301732924
1.57604737501242,1.03973785400391,3.88397323608398,10.6046974182129,11.3413363513969
1.58607037502225,0.686472473144531,4.46850769042969,9.95459930419922,10.9331081007634
1.59609437501058,0.570463714599609,4.75830505371094,9.41781555175781,10.5670310684117
1.6061173750204,0.537681884765625,4.6557682800293,9.00961441040039,10.1557093258239
1.61614037500112,0.501457214355469,4.43437866210938,8.68389175415039,9.76345991207017
1.62616337501095,0.411643981933594,4.26073974609375,8.39274719238281,9.42133532929673
1.63618637502077,0.362695770263672,4.12721740722656,8.33092575073242,9.30428909764189
1.6462103750091,0.516126708984375,4.06794067382813,8.14890426635742,9.12245410225617
1.65623337501893,0.635428619384766,3.96824798583984,7.67005004882813,8.65912405263855
1.66625637499965,0.504900054931641,3.99115036010742,7.25316696166992,8.29413263918028
1.67627937500947,0.151634674072266,4.23125106811524,7.01156936645508,8.19076209252952
1.6863023750193,-0.134570159912109,4.44365936279297,6.69557647705078,8.03709910480841
1.69632637500763,-0.305963745117188,4.62972244262695,6.26103012084961,7.79284555751466
1.70634937501745,-0.444276123046875,4.83644256591797,5.9251286315918,7.66131237242299
1.71637237499817,-0.501906280517578,5.02085906982422,5.70673278808594,7.61759376890591
1.726395375008,-0.423768768310547,5.13267654418945,5.60509414672852,7.61190047688212
1.73641837501782,-0.318836975097656,5.12474304199219,5.60943511962891,7.60463086707454
1.74644137499854,-0.203426971435547,5.04106704711914,5.65598831176758,7.57917827268296
1.75646537501598,-0.0200582885742188,4.94287124633789,5.77244613647461,7.59957320455005
1.7664883749967,0.178428955078125,4.69798049926758,5.87692886352539,7.52603152600669
1.77651137500652,0.243094482421875,4.27376266479492,6.00326614379883,7.37315038743007
1.78653437501634,0.209115142822266,4.0621028137207,6.23872650146484,7.44755777233551
1.79655837500468,0.205672302246094,4.18365005493164,6.46775024414063,7.70564871367894
1.8065813750145,0.205223236083984,4.55323150634766,6.73120239257813,8.1291524390231
1.81660437502433,0.103883972167969,4.95619354248047,6.90618850708008,8.5011814476297
1.82662737500505,-0.129181365966797,5.32278121948242,7.04719528198242,8.83242034089089
1.83665037501487,-0.299227752685547,5.56722290039063,7.36019439697266,9.23341592433909
1.8466743750032,-0.367336120605469,5.68637512207031,7.69624557495117,9.5761157994438
1.85669737501303,-0.395926666259766,5.70269119262695,7.88994277954102,9.74313306015842
1.86672037502285,-0.407752075195313,5.64206726074219,8.14965270996094,9.92048506992166
1.87674337500357,-0.277822265625,5.51617904663086,8.7228108215332,10.3243811007742
1.88676637501339,0.0642164611816406,5.48818725585938,9.14837585449219,10.6685099186494
1.89679037500173,0.419577484130859,5.47336807250977,9.35808975219727,10.8493155144709
1.90681337501155,0.55324951171875,5.41229507446289,9.65731750488281,11.0843495246852
1.91683637502138,0.428858184814453,5.38250701904297,9.90415420532227,11.2804065385753
1.9268593750021,0.204025726318359,5.35436553955078,9.8960710144043,11.2535806901742
1.93688237501192,-0.06945556640625,5.26275604248047,9.76793746948242,11.0956760788195
1.94690637500025,-0.251027984619141,5.06516693115234,9.68905151367188,10.9360253439761
1.95692937501008,-0.204025726318359,4.80860046386719,9.46272216796875,10.6163730033506
1.9669523750199,0.00284408569335938,4.48572189331055,9.33743270874023,10.3590230515817
1.97697537500062,0.10777587890625,4.14428192138672,9.74922637939453,10.5940598110776
1.98699837501044,0.0260458374023438,3.95627288818359,10.5433250427246,11.2611933873798
1.99702237499878,-0.00823287963867188,3.86256774902344,11.4600187683105,12.0934497793695
2.0070453750086,0.0342787170410156,3.65988922119141,12.365336151123,12.895638885767
2.01706837501843,0.101039886474609,3.22339691162109,13.3558264160156,13.7396723382782
2.02709137499915,0.268092498779297,2.63317428588867,14.4171194458008,14.6580630890392
2.03711479168851,0.501307525634766,2.04849014282227,15.2332223510742,15.3785137220007
2.04713879167684,0.746048583984375,1.60795623779297,15.3293225097656,15.4314691575601
2.05716179168667,0.92253158569336,1.21427490234375,15.0739535522461,15.1508944871363
2.06718479166739,1.10485244750977,0.828527069091797,14.3765538024902,14.4427301875678
2.07720779167721,1.11892318725586,0.573756866455078,13.0241162109375,13.0846776466518
2.08723079168703,0.916394348144531,0.3975732421875,11.5462394714355,11.589369655678
2.09725479167537,0.630788269042969,0.321231994628906,10.1083296203613,10.1330849966143
2.10727779168519,0.310753784179688,0.390088806152344,8.9286328125,8.9425511511827
2.11730079166591,-0.0699046325683594,0.437240753173828,8.09830947875977,8.11040581892551
2.12732379167574,-0.411494293212891,0.437091064453125,7.83979705810547,7.86274723390309
2.13734679168556,-0.682879943847656,0.514180755615234,8.2960482788086,8.33997145747379
2.14737079167389,-0.903970184326172,0.742306365966797,9.17561920166016,9.24987397584314
2.15739379168372,-0.707877960205078,0.988694000244141,10.4038151550293,10.474634925031
2.16741679166444,0.0413140869140625,1.37848342895508,10.8274342346191,10.9149097807854
2.17743979167426,1.08120162963867,1.77321258544922,10.3259770202637,10.5327622806243
2.18746379166259,1.62023071289063,1.79836029052734,9.12053375244141,9.43628015835491
2.19748679167242,1.68070495605469,1.33701965332031,8.01029251098633,8.29320063752441
2.20750979168224,1.22669906616211,1.79686340332031,7.27097991943359,7.5895097126179
2.21753279166296,0.464184722900391,1.52667526245117,6.31416961669922,6.51267554561119
2.22755579167279,-0.0341290283203125,0.700992279052734,5.76855422973633,5.81109050585813
2.23757979169022,-0.179476776123047,0.221239929199219,5.58234146118164,5.58960599762337
2.24760279167094,-0.0118254089355469,-0.232167205810547,5.61632080078125,5.62112984986457
2.25762579168077,0.181422729492188,-0.666863250732422,6.0164387512207,6.05600165531219
2.26764879169059,0.161514129638672,-1.5709831237793,7.25855575561524,7.42837172243335
2.27767179167131,0.00718505859375,-2.68451751708984,8.76292739868164,9.16491039340782
2.28769579168875,-0.308508453369141,-3.35407516479492,9.34955749511719,9.93776750741314
2.29771879166947,-0.642014923095703,-3.67500778198242,9.06844207763672,9.80584045732752
2.30774179167929,-0.7041357421875,-3.44448715209961,8.52177886962891,9.21851473867992
2.31776479168911,-0.513282623291016,-2.55638397216797,8.21132446289063,8.61535881431504
2.32778779166983,-0.575253753662109,-1.40422988891602,7.79638732910156,7.94269688754411
2.33781179168727,-0.328566741943359,-0.18441650390625,7.52560043334961,7.53502670421652
2.34783479166799,-0.292940826416016,0.729582824707031,7.5345817565918,7.57548860949937
2.35785779167782,-0.657133483886719,1.06623275756836,7.52724700927734,7.63073549847141
2.36788079168764,-0.878373413085938,0.970132598876953,7.9851448059082,8.09167687710914
2.37790379166836,-1.14871124267578,0.758023681640625,9.2158854675293,9.31808362119569
2.3879277916858,-1.46784759521484,0.48618896484375,10.9385032653809,11.0472535029781
2.39795079166652,-1.79566589355469,0.434097290039063,11.9713554382324,12.1130593776713
2.40797379167634,-1.99100967407227,0.827179870605469,11.5357612609863,11.7355073998126
2.41799679168616,-1.81452667236328,1.25693618774414,11.0079588317871,11.2270901513749
2.4280207916745,-1.63415176391602,1.63295425415039,10.9907446289063,11.2309153269664
2.43804379168432,-1.71782775878906,1.88278472900391,11.0078091430664,11.2990120220669
2.44806679166504,-1.88338348388672,2.00418228149414,11.4600187683105,11.7854109022495
2.45808979167487,-1.93278076171875,2.08696014404297,11.8478622436523,12.1845346181238
2.46811279168469,-1.78189453125,2.1793180847168,11.9045942687988,12.2329039945383
2.47813679167302,-1.39450012207031,2.23844512939453,11.7119448852539,12.0052038792762
2.48815979168285,-0.986748046875,2.22796691894531,11.411369934082,11.6686276859105
2.49818279166357,-0.673599243164063,2.04893920898438,11.2459638977051,11.4509210027399
2.50820579167339,-0.492924957275391,1.80734161376953,11.0998677062988,11.2568433328222
2.51822879168321,-0.427211608886719,1.60825561523438,10.9681416320801,11.0936525429666
2.52825279167155,-0.420026550292969,1.53460876464844,10.8464447021484,10.9625183712617
2.53827579168137,-0.416134643554688,1.57741973876953,10.731184387207,10.854480154575
2.54829879166209,-0.411793670654297,1.6910334777832,10.5904769897461,10.7325379626869
2.55832179167192,-0.305215301513672,1.75016052246094,10.44228515625,10.5923339033047
2.56834479168174,-0.0972976684570313,1.69941604614258,10.4973706054688,10.6344850069354
2.57836879167007,0.101189575195313,1.51709518432617,10.6428680419922,10.7509282058663
2.5883917916799,0.228275299072266,1.26651626586914,10.8587191772461,10.9347133128477
2.59841479168972,0.429756317138672,0.997974700927734,11.1917765808105,11.2443989181544
2.60843779167044,0.633782043457031,0.574505310058594,11.4459480285645,11.4778683692789
2.61846079168026,0.818647613525391,0.0832269287109375,11.7957705688477,11.8244371514963
2.6284847916686,1.00141754150391,-0.384700012207031,12.0086279296875,12.0564495580372
2.63850779167842,1.23014190673828,-0.71132080078125,12.0441041564941,12.1276407979795
2.64853079168825,1.50676666259766,-0.843945007324219,11.9245028686523,12.048915204922
2.65855379166896,1.76497970581055,-0.9196875,11.5836616516113,11.7533908179125
2.66857679167879,1.99295562744141,-1.06757995605469,11.4206506347656,11.6422875766274
2.67860079166712,2.17737213134766,-1.18867813110352,11.3052406311035,11.5742114558568
2.68862379167695,2.29502746582031,-1.22714813232422,11.0679840087891,11.3698422867842
2.69864679168677,2.36493209838867,-1.12775482177734,10.7491470336914,11.0638554184311
2.70866979166749,2.37451217651367,-0.899928588867188,10.3818109130859,10.6878518597772
2.71869379168493,2.38259536743164,-0.611029357910156,10.0185163879395,10.3160451810055
2.72871679166565,2.36657867431641,-0.298778686523438,9.58082656860352,9.8733075037147
2.73873979167547,2.2754182434082,-0.0185614013671875,9.09209289550781,9.37251438668404
2.74876279168529,2.10207870483398,0.235759735107422,8.5407893371582,8.7988294696357
2.75878579166601,1.94236083984375,0.463885345458984,7.85895721435547,8.10870912926096
2.76880979168345,1.77021881103516,0.664318542480469,7.15048049926758,7.396239932238
2.77883279166417,1.57771911621094,0.833167419433594,6.47643218994141,6.71770343714073
2.788855791674,1.3748908996582,0.978515167236328,5.93860061645508,6.17371802079064
2.79887879168382,1.09587112426758,1.14047836303711,5.55539749145508,5.77616358023426
2.80890179166454,0.863254852294922,1.28328140258789,5.45929733276367,5.67414728974841
2.81892579168198,0.688418426513672,1.4416520690918,5.62799652099609,5.85035259267545
2.8289487916627,0.553848266601563,1.66094604492188,5.76840454101563,6.02826514142907
2.83897179167252,0.52450927734375,1.887275390625,5.86151092529297,6.18014795206452
2.84899479168234,0.592318267822266,2.03232376098633,6.07990676879883,6.43789151175689
2.85901779166306,0.709674224853516,2.09055267333984,6.38602020263672,6.75687072644683
2.8690417916805,0.850830688476563,2.07977508544922,6.78868286132813,7.15091548392225
2.87906479169033,1.04602478027344,2.0260368347168,7.33519638061524,7.68141256793086
2.88908779167105,1.23657852172852,1.98741714477539,7.8222834777832,8.16499064019963
2.89911079168087,1.36082015991211,2.01061889648438,8.0758561706543,8.43290417019062
2.90913379169069,1.40482864379883,2.04893920898438,8.27119995117188,8.63622857692041
2.91915779167903,1.33911529541016,2.11629913330078,8.56863143920899,8.92711580170279
2.92918079168885,1.13688583374023,2.22557189941406,8.93132720947266,9.27438868072109
2.93920379166957,0.877026214599609,2.33903594970703,9.43413162231445,9.75925732944215
2.94922679167939,0.552800445556641,2.48468307495117,9.86224136352539,10.1854328836819
2.95924979168922,0.256416778564453,2.59066268920898,10.1867665100098,10.5141568688624
2.96927379167755,0.0136216735839844,2.60413467407227,10.5678739929199,10.8840095406486
2.97929679168738,-0.165855102539063,2.48677871704102,10.9233847045898,11.2041023606103
2.98931979166809,-0.341889038085938,2.29832061767578,11.3682595825195,11.6032965881056
2.99934279167792,-0.519569549560547,2.0453466796875,11.7758619689941,11.963457722153
3.00936679166625,-0.61552001953125,1.70390670776367,12.2613024902344,12.3944222019517
3.01938979167608,-0.661025390625,1.32324829101563,12.7169549560547,12.8026904969639
3.0294127916859,-0.8669970703125,1.02716400146484,13.2311357116699,13.2992368963961
3.03943600002094,-1.37114868164063,0.861308898925781,13.5430870056152,13.639542051264
3.04945900000166,-1.94535461425781,0.718356170654297,13.4502799987793,13.609205421651
3.0594830000191,-2.48992218017578,0.651295623779297,13.2651150512695,13.5124822211281
3.06950599999982,-3.17010772705078,0.618663482666016,13.0762078857422,13.4692071101842
3.07952900000964,-3.70569396972656,0.737815704345703,13.3094229125977,13.8353633156931
3.08955200001947,-3.86601058959961,0.857866058349609,13.939013671875,14.4906202143898
3.09957500000019,-3.59597213745117,0.739312591552734,14.8748675537109,15.3212037210461
3.10959900001762,-2.59365646362305,0.322878570556641,15.3204908752441,15.5418385360631
3.11962199999834,-1.17580490112305,-0.634829864501953,15.0288972473145,15.088183409301
3.12964500000817,-0.0288899230957031,-1.71752838134766,14.3859841918945,14.4881772331039
3.13966800001799,0.735869750976563,-2.49501159667969,13.5279684448242,13.7757946196264
3.14969099999871,1.03285217285156,-2.66580642700195,12.6551335144043,12.9740399176435
3.15971500001615,0.202079772949219,-2.78016860961914,11.3742471313477,11.7108356464224
3.16973799999687,-0.479153594970703,-2.24533081054688,10.6798411560059,10.9238320077655
3.17976100000669,-0.916094970703125,-1.25319396972656,10.502310333252,10.616414058289
3.18978400001652,-1.30842910766602,-0.366587677001953,9.742939453125,9.83723754119911
3.19980699999724,-1.5949333190918,0.222138061523438,9.26183990478516,9.40078911754738
3.20983100001467,-1.68414779663086,0.636925506591797,9.34371963500977,9.51562528263439
3.21985399999539,-1.50227600097656,0.633632354736328,9.26707901000977,9.40941424966732
3.22987700000522,-1.2021501159668,0.349822540283203,9.11858779907227,9.20413951221942
3.23990000001504,-0.934207305908203,0.273331604003906,8.93791351318359,8.9907592240761
3.24992400000338,-0.683179321289063,0.273331604003906,8.40247695922852,8.4346347402333
3.2599470000132,-0.622405700683594,0.340242462158203,7.86958511352539,7.90148869823398
3.26997000002302,-0.542920989990234,0.428558807373047,7.20960754394531,7.24271128725025
3.27999300000374,-0.398920440673828,0.500858459472656,6.40802444458008,6.43993586899346
3.29001600001357,-0.261356506347656,0.651744689941406,5.76106979370117,5.80370601703542
3.3000400000019,-0.221838684082031,0.802032165527344,4.99092132568359,5.05981854175217
3.31006300001172,-0.172591094970703,1.03105590820313,4.37600006103516,4.4991377514012
3.32008600002155,-0.263601837158203,1.09003326416016,4.08620269775391,4.23729995783401
3.33010900000227,-0.402063903808594,1.0919792175293,3.53834197998047,3.72477354500295
3.34013200001209,-0.392633514404297,1.04348007202148,3.43191329956055,3.60846790661078
3.35015600000042,-0.280516662597656,1.33252899169922,3.57516540527344,3.82571964299239
3.36017900001025,-0.377664642333984,1.74596923828125,3.57067474365234,3.99258779340547
3.37020200002007,-0.558189239501953,2.01750457763672,3.39733520507813,3.99046193360419
3.38022500000079,-0.468974761962891,2.0740869140625,3.57636291503906,4.16078665092434
3.39024800001062,-0.407303009033203,1.98681838989258,4.14113845825195,4.61111383355434
3.40027199999895,-0.581540679931641,1.8583854675293,5.04166580200195,5.40464431460716
3.41029500000877,-0.758323059082031,1.79297149658203,6.14681762695313,6.447725768712
3.4203180000186,-0.882864074707031,1.80255157470703,7.17772384643555,7.45307726845607
3.43034099999932,-1.18149307250977,2.15417037963867,8.07555679321289,8.44103035329859
3.44036400000914,-1.54912857055664,2.80786102294922,9.55837326049805,10.0819830509338
3.45038799999747,-1.81123352050781,3.10274780273438,11.1164831542969,11.6826284933208
3.4604110000073,-2.11106002807617,2.93195297241211,12.4552990722656,12.9687084034671
3.47043400001712,-2.39621704101563,2.7065217590332,13.5857482910156,14.0584377783098
3.48045699999784,-2.61566070556641,2.63571899414063,14.2981169128418,14.7724352358036
3.49048000000767,-2.82672180175781,2.63976058959961,14.576837310791,15.0812094375818
3.500503999996,-2.95874725341797,2.59694961547852,14.5901596069336,15.111951891491
3.51052700000582,-2.99811538696289,2.36208801269531,14.5048370361328,14.9986150393306
3.52055000001565,-3.13523025512695,2.24742645263672,14.2568028259277,14.7694624556907
3.53057299999637,-3.26755508422852,2.31598388671875,13.9827227783203,14.5450071807258
3.54059600000619,-3.23731796264648,2.2799089050293,13.5938314819336,14.1587593582812
3.55062000002363,-3.11128005981445,2.21120178222656,13.1338380432129,13.6772504063378
3.56064300000435,-2.92865982055664,2.270478515625,12.7019860839844,13.231499216347
3.57066600001417,-2.70382736206055,2.26823318481445,12.5590333557129,13.0454928237468
3.58068900002399,-2.36762649536133,2.07259002685547,12.5536445617676,12.9419966166027
3.59071200000471,-1.81258071899414,1.50047973632813,12.8109594726563,13.0252666349692
3.60073600002215,-1.26427093505859,0.634829864501953,13.1911688232422,13.2668129133328
3.61075900000287,-0.933608551025391,-0.105380859375,13.6936738586426,13.7258673241053
3.6207820000127,-0.74530014038086,-0.631985778808594,14.0126605224609,14.0466911848166
3.63080500002252,-0.688418426513672,-0.981059875488281,13.8650674438477,13.9167702298953
3.64082900001085,-0.691412200927734,-1.44808868408203,13.6550541687012,13.7490187293029
3.65085200002068,-0.667611694335938,-1.92888885498047,13.2721504211426,13.4281902872545
3.6608750000014,-0.545016632080078,-2.16000823974609,12.8893963623047,13.0804899491421
3.67089800001122,-0.269140319824219,-2.27496917724609,12.5160726928711,12.7239929629974
3.68092100002104,0.0739462280273438,-2.25760528564453,11.9397711181641,12.1515589133475
3.69094500000938,0.312550048828125,-2.05133422851563,11.1503128051758,11.3417430452012
3.7009680000192,0.358654174804688,-1.57921600341797,10.2776275634766,10.4044309953063
3.71099099999992,0.17483642578125,-1.07132217407227,9.3119856262207,9.37504001481486
3.72101400000975,-0.0699046325683594,-0.551153869628906,8.33631454467774,8.35480684596999
3.73103700001957,-0.279468841552734,-0.162412261962891,7.35300933837891,7.36011052271106
3.7410610000079,-0.427510986328125,0.104782104492188,6.50232833862305,6.51720943012525
3.75108400001773,-0.567320251464844,0.262554016113281,5.84220108032227,5.87555106709303
3.76110699999845,-0.695304107666016,0.375269622802734,5.40376281738281,5.46122034699798
3.77113000000827,-0.747395782470703,0.558937683105469,5.00633926391602,5.09258722209816
3.78115300001809,-0.749491424560547,0.794847106933594,4.53676574707031,4.6664507671978
3.79117700000643,-0.777932281494141,0.957858123779297,4.11599075317383,4.29698158014357
3.80120000001625,-0.818797302246094,1.04003723144531,3.96405670166016,4.17921667288676
3.81122299999697,-0.920585632324219,1.17490676879883,4.02198623657227,4.29001831103176
3.8212460000068,-1.03704345703125,1.31441665649414,4.21268966674805,4.5332002500404
3.83126900001662,-1.09437423706055,1.41545654296875,4.48572189331055,4.82937605699747
3.84129300000495,-1.11263626098633,1.48131958007813,4.6464875793457,5.00221090844822
3.85131600001478,-1.0871891784668,1.51769393920898,4.88853424072266,5.23289042744111
3.8613389999955,-1.01818267822266,1.49284561157227,5.26350448608399,5.56504837905741
3.87136200000532,-0.958307189941406,1.50961074829102,5.69161422729492,5.96588214717615
3.88138500001514,-0.896485748291016,1.57921600341797,5.98844696044922,6.25772377789671
3.89140900000348,-0.773890686035156,1.63235549926758,6.55397094726563,6.79838410561826
3.9014320000133,-0.579894104003906,1.56768997192383,7.36303848266602,7.55038175969598
3.91145500002312,-0.475561065673828,1.47458358764648,8.18946990966797,8.33474489624597
3.92147800000384,-0.643661499023438,1.52532806396484,9.24552383422852,9.39258413842173
3.93150100001367,-1.0344987487793,1.68579437255859,10.376721496582,10.5635429352753
3.941525000002,-1.56050491333008,1.97394515991211,11.2739556884766,11.5513510874097
3.95154800001183,-2.1507275390625,2.44007583618164,11.942315826416,12.3773384187177
3.96157100002165,-2.73645950317383,2.97656021118164,12.5783432006836,13.2122230899074
3.97159400000237,-3.1470556640625,3.33356781005859,13.2772398376465,14.0464134711802
3.98161700001219,-3.20872741699219,3.23686889648438,13.9710470581055,14.6956935116851
3.99164100000053,-2.96458511352539,2.76819351196289,14.4615769958496,15.0196161542796
4.00166400001035,-2.73077133178711,2.34786758422852,14.971117401123,15.398180103434
4.01168700002017,-2.61910354614258,2.05088516235352,15.4112022399902,15.7661342064711
4.02171000000089,-2.55428833007813,1.7533039855957,15.809673614502,16.1103768899476
4.03173300001072,-2.47166015625,1.34285751342773,15.7518937683105,16.0010789485429
4.04175679167383,-2.55009704589844,1.07087310791016,15.5564002990723,15.8003593130574
4.05177979168366,-2.76175689697266,1.00680633544922,15.3812644958496,15.6596378516989
4.06180279166438,-3.09271865844727,0.946781158447266,15.2221453857422,15.5619733133999
4.0718257916742,-3.27563827514648,0.827329559326172,15.262561340332,15.6320203101435
4.08184879168402,-3.21845718383789,0.328566741943359,15.6598352050781,15.9905241126835
4.09187279167236,-2.82717086791992,-0.390986938476563,16.3033470153809,16.5512806092581
4.10189579168218,-2.18111434936523,-0.884360961914063,16.4665077209473,16.6338579601961
4.1119187916629,-1.62591888427734,-1.26067840576172,15.9238861083984,16.0562471036743
4.12194179167273,-1.25274490356445,-1.79416900634766,15.0628765869141,15.220994162319
4.13196479168255,-1.01578765869141,-2.25985061645508,13.7866305541992,14.0074955439658
4.14198879167088,-0.854423217773438,-2.48483276367188,12.2033729553223,12.4830582945518
4.15201179168071,-0.934506683349609,-2.44022552490234,10.836565246582,11.147158817252
4.16203479169053,-1.25214614868164,-2.06630310058594,9.8144906616211,10.1075073795767
4.17205779167125,-1.68324966430664,-1.5185920715332,9.21977737426758,9.4944060447807
4.18208079168107,-2.04908889770508,-0.880469055175781,8.78702728271484,9.06564060257163
4.19210479166941,-2.33349746704102,-0.184117126464844,8.33047668457031,8.65308912106619
4.20212779167923,-2.50923202514648,0.363294525146484,7.94757293701172,8.34219059103442
4.21215079168906,-2.49321533203125,0.584534454345703,7.62753845214844,8.04593972505362
4.22217379166978,-2.29263244628906,0.507444763183594,7.30795303344727,7.67592608487933
4.2321967916796,-1.9544856262207,0.334254913330078,7.10542419433594,7.37690947427465
4.24222079166793,-1.51529891967773,0.159418487548828,7.02564010620117,7.1889612582077
4.25224379167776,-1.09931396484375,0.0963995361328125,6.77461212158203,6.86390220368511
4.26226679168758,-0.749940490722656,0.1772314453125,6.37494323730469,6.4213490018601
4.2722897916683,-0.479452972412109,0.348175964355469,5.8631575012207,5.89302278453344
4.28231279167812,-0.327518920898438,0.51013916015625,5.34792892456055,5.38217933447249
4.29233679166646,-0.309855651855469,0.712069244384766,4.80605575561524,4.86839039723272
4.30235979167628,-0.389340362548828,0.951122131347656,4.28304336547852,4.40462026708529
4.31238279168611,-0.573607177734375,1.21921463012695,3.86720809936523,4.09521769781047
4.32240579166682,-0.815354461669922,1.44689117431641,3.66692459106445,4.02549784809692
4.33242879167665,-1.01384170532227,1.58819732666016,3.66408050537109,4.12016161111451
4.34245279166498,-1.1258088684082,1.70585266113281,3.57471633911133,4.11776344813419
4.35247579167481,-1.11563003540039,1.85015258789063,3.49029190063477,4.10485475090197
4.36249879168463,-1.08030349731445,2.04370010375977,3.57142318725586,4.25427189338979
4.37252179166535,-1.03210372924805,2.25296493530273,3.79296249389648,4.53074536778849
4.38254479167517,-1.00560882568359,2.49620910644531,4.10087219238281,4.90504452086338
4.39256879166351,-0.940793609619141,2.73256759643555,4.58107360839844,5.41647982462359
4.40259179167333,-0.897982635498047,2.90964935302734,5.26619888305664,6.08319676215849
4.41261479168315,-0.853525085449219,3.04736297607422,6.17061813354492,6.9348002371714
4.42263779166387,-0.870589599609375,3.23432418823242,7.35630249023438,8.08294287579479
4.4326607916737,-0.892893218994141,3.3721875,8.78897323608399,9.45594825389197
4.44268479166203,-0.840502166748047,3.36021240234375,10.2954405212402,10.862484375481
4.45270779167186,-0.7903564453125,3.28402084350586,11.698772277832,12.1766468709493
4.46273079168168,-0.834664306640625,3.3289274597168,13.0597421264648,13.5031584063358
4.4727537916624,-1.0347981262207,3.44673248291016,14.1057669067383,14.5575901851237
4.48277779167984,-1.33731903076172,3.55346054077148,14.7576612854004,15.2382436855257
4.49280079168966,-1.53131561279297,3.61767700195313,15.2196006774902,15.7184210141701
4.50282379167038,-1.58250915527344,3.61932357788086,15.2763327026367,15.7787889024975
4.5128467916802,-1.5709831237793,3.59657089233398,14.935341796875,15.4424008738365
4.52286979169003,-1.51739456176758,3.56184310913086,14.3677221679688,14.8802101089361
4.53289379167836,-1.40078704833984,3.44703186035156,13.6468212890625,14.1449625060191
4.54291679168819,-1.29675338745117,3.33491500854492,12.8943360900879,13.3815967158717
4.55293979166891,-1.29929809570313,3.35048263549805,12.1102665710449,12.6321995651605
4.56296279167873,-1.40452926635742,3.43550582885742,11.4184053039551,12.0064725230001
4.57298579168855,-1.50961074829102,3.48175964355469,11.1298054504395,11.7590026869405
4.58300979167689,-1.54793106079102,3.4344580078125,11.1455227661133,11.7649594179639
4.59303279168671,-1.47009292602539,3.37158874511719,11.3591285705566,11.9397900215953
4.60305579166743,-1.22909408569336,3.41694442749023,11.8605857849121,12.4040185687261
4.61307879167725,-0.781973876953125,3.35811676025391,12.6226510620117,13.0850965282279
4.62310179168708,-0.170645141601563,2.96338760375977,13.4168994140625,13.7413236531835
4.63312579167541,0.461190948486328,2.42959762573242,13.959670715332,14.1770253648087
4.64314879168524,1.03674407958984,1.89431076049805,14.1925863647461,14.355931152826
4.65317179166595,1.45647125244141,1.32160171508789,13.947096862793,14.0850790023571
4.66319479167578,1.68175277709961,0.906664581298828,13.3170570373535,13.453413737873
4.6732177916856,1.81752044677734,0.60638900756836,12.7096202087402,12.8532304909455
4.68324179167394,1.90194488525391,0.544717254638672,11.932735748291,12.0956311812401
4.69326479168376,1.93622360229492,0.724792785644531,10.980266418457,11.173206211312
4.70328779166448,1.94655212402344,1.04303100585938,10.0842297363281,10.3232101705704
4.7133107916743,1.97933395385742,1.32205078125,9.2301058959961,9.53207406708522
4.72333379168413,1.89730453491211,1.55197265625,8.39289688110352,8.7435176948859
4.73335779167246,1.63250518798828,1.78009826660156,7.72543487548828,8.09420576974524
4.74338079168228,1.3123210144043,1.9733464050293,7.30391143798828,7.67876323199675
4.753403791663,1.0969189453125,2.0404069519043,6.93223434448242,7.3090604532174
4.76342679167283,0.989292755126953,1.97409484863281,6.49469421386719,6.85979617469683
4.77344979168265,0.960552520751953,1.76872192382813,5.99907485961914,6.32771187399265
4.78347379167099,0.952020263671875,1.56349868774414,5.49133071899414,5.78840079766322
4.79349679168081,0.887953491210938,1.45557312011719,5.12369522094727,5.39994511339877
4.80351979169063,0.822838897705078,1.51739456176758,4.98568222045899,5.27603803161607
4.81354279167135,0.700692901611328,1.70600234985352,4.93239303588867,5.2659202064366
4.82356579168118,0.628093872070313,2.03352127075195,5.02834350585938,5.46021511331294
4.83358979166951,0.620908813476563,2.38484069824219,5.1635124206543,5.72143805602196
4.84361279167933,0.562679901123047,2.61416381835938,5.31275207519531,5.94775552228227
4.85363579168916,0.528251495361328,2.62883331298828,5.604345703125,6.21276951044895
4.86365879166988,0.498313751220703,2.49471221923828,5.90686660766602,6.43140566068043
4.8736817916797,0.531993713378906,2.39576797485352,6.16388214111328,6.6344679176211
4.88370579166804,0.577948150634766,2.423759765625,6.29785354614258,6.77285720762998
4.89372879167786,0.706680450439453,2.52300338745117,6.64528106689453,7.14315783181012
4.90375179168768,0.934356994628906,2.70532424926758,7.40210723876953,7.93618257484866
4.9137747916684,1.10395431518555,2.93794052124023,8.15474212646485,8.73785035266126
4.92379879168584,1.21711898803711,3.19630325317383,8.72969650268555,9.37578445498244
4.93382179166656,1.3506413269043,3.47517333984375,9.33683395385742,10.0537321437269
4.94384479167638,1.44150238037109,3.67620529174805,9.80700622558594,10.572123039786
4.95386779168621,1.59178985595703,3.73368576049805,10.1258432006836,10.9090285923406
4.96389079166693,1.73339538574219,3.64821350097656,10.2818188476563,11.0467153547124
4.97391479168437,1.7290544128418,3.46664108276367,10.2861598205566,10.9914654806948
4.98393779166509,1.47862518310547,3.35302734375,10.2536773681641,10.8888486246457
4.99396079167491,1.04976699829102,3.43071578979492,10.4458776855469,11.0448260376728
5.00398379168473,0.595761108398438,3.58908645629883,10.7301365661621,11.3301502027801
5.01400679166545,0.21315673828125,3.79011840820313,10.9426945495605,11.5824434964414
5.02403079168289,-0.0492475891113281,3.93696304321289,11.2555439758301,11.9243185767784
5.03405379166361,-0.161963195800781,3.97857650756836,11.4844180297852,12.1551289827062
5.0440800000215,-0.168399810791016,4.01824401855469,11.4317276000977,12.1185411420583
5.05410300000222,-0.124990081787109,4.04428985595703,11.1815977478027,11.8911745068857
5.06412700001965,-0.126786346435547,4.0091130065918,10.9126071166992,11.6264378018678
5.07415000000037,-0.186362457275391,3.96285919189453,10.8581204223633,11.5601800611758
5.0841730000102,-0.285157012939453,3.88621856689453,11.0006240844727,11.6703787222002
5.09419600002002,-0.373024291992188,3.74790618896484,11.3513447570801,11.9598902887019
5.10421900000074,-0.318986663818359,3.49807571411133,12.0640127563477,12.5649787098375
5.11424300001818,-0.0169148254394531,3.1519953918457,12.7034829711914,13.0886913272827
5.1242659999989,0.381855926513672,2.77897109985352,12.8931385803223,13.1947533805611
5.13428900000872,0.801732788085938,2.40295303344727,12.5593327331543,12.8122518491687
5.14431200001854,1.10560089111328,2.16449890136719,11.8578913879395,12.104420555839
5.15433499999926,1.22744750976563,2.06001617431641,11.1238179016113,11.3793505410407
5.1643590000167,1.1207194519043,2.05357955932617,10.5675746154785,10.8234391184163
5.17438199999742,0.925974426269531,2.19428695678711,10.3602557373047,10.6304855406132
5.18440500000725,0.706830139160156,2.37705688476563,10.1954484558105,10.4927202142307
5.19442800001707,0.577948150634766,2.50548980712891,9.93199630737305,10.2594373085526
5.2044520000054,0.554447021484375,2.5005500793457,9.67692672729492,10.0101485046119
5.21447500001523,0.754580841064453,2.35340606689453,9.62483505249024,9.93707009882904
5.22449799999595,1.09257797241211,2.10177932739258,9.55208633422852,9.84142044134942
5.23452100000577,1.38761444091797,1.82335830688477,9.4553874206543,9.7290524012669
5.24454400001559,1.55706207275391,1.6143928527832,9.46721282958984,9.72927671218558
5.25456800000393,1.56050491333008,1.5521223449707,9.38428527832031,9.63893508346145
5.26459100001375,1.42174346923828,1.6527131652832,8.96635437011719,9.22758505729109
5.27461400002358,1.1114387512207,1.82769927978516,8.33182388305664,8.60203871028928
5.2846370000043,0.698896636962891,1.98906372070313,7.76839553833008,8.04939750752329
5.29466000001412,0.343984680175781,2.09654022216797,7.22113357543945,7.52718914852701
5.30468400000245,0.0624201965332031,2.14803314208984,6.6963249206543,7.03268868239078
5.31470700001228,-0.157023468017578,2.28410018920898,6.12137054443359,6.5355143168776
5.3247300000221,-0.26584716796875,2.4572900390625,5.6140754699707,6.13406817987211
5.33475300000282,-0.275576934814453,2.58991424560547,5.19883895874024,5.81476783418798
5.34477700002026,-0.259560241699219,2.60982284545898,4.84991455078125,5.51363926582346
5.35480000000098,-0.228275299072266,2.60308685302734,4.71369781494141,5.38953781572722
5.3648230000108,-0.161514129638672,2.68391876220703,4.74468338012695,5.45357929380813
5.37484600002063,-0.143102416992188,2.82791931152344,4.82506622314453,5.594539301137
5.38486900000135,-0.108374633789063,2.94796966552734,4.84317855834961,5.6708596136896
5.39489300001878,-0.0516426086425781,3.00574951171875,4.85365676879883,5.70921895845059
5.4049159999995,-0.0845741271972656,3.12579986572266,5.02984039306641,5.92258997088819
5.41493900000933,0.000748443603515625,2.96578262329102,5.57620422363281,6.31584678981712
5.42496200001915,0.224832458496094,2.55264175415039,6.29935043334961,6.80061360772448
5.43498600000748,0.214354248046875,2.33649124145508,6.49664016723633,6.90734916792256
5.44500900001731,0.19399658203125,2.06630310058594,6.48316818237305,6.80725442878883
5.45503199999803,0.717907104492188,0.903670806884766,6.54992935180664,6.65083348547791
5.46505500000785,1.40887023925781,2.53093688964844,8.01134033203125,8.51892779674064
5.47507800001768,1.38611755371094,3.95552444458008,8.70724319458008,9.66351796986673
5.48510200000601,1.10919342041016,4.62882431030273,8.71727233886719,9.93212774633461
5.49512500001583,0.713266754150391,4.82102462768555,8.91875335693359,10.1634240964914
5.50514799999655,0.310903472900391,4.90544906616211,9.28384414672852,10.5047538596065
5.51517100000638,-0.0890647888183594,4.99361572265625,9.84038681030274,11.0352772098641
5.52519500002381,-0.220192108154297,5.5708154296875,10.8858128356934,12.2304288645118
5.53521800000453,-0.643362121582031,6.11628112792969,11.5314202880859,13.0689121014657
5.54524100001436,-1.01099761962891,6.58555526733398,11.6912878417969,13.4565175943018
5.55526400002418,-1.07431594848633,6.90469161987305,11.7674794006348,13.6858500856571
5.56528800001252,-1.03704345703125,6.91277481079102,11.9132762145996,13.8126052894384
5.57531100002234,-1.03629501342773,6.38946304321289,12.0902082824707,13.7139447880237
5.58533400000306,-1.12251571655273,5.54476959228516,12.2970780944824,13.5359758062445
5.59535700001288,-1.34734817504883,4.65726516723633,12.8018284606934,13.6891299168274
5.60538000002271,-1.52996841430664,4.09368713378906,13.709091796875,14.388824677272
5.61540400001104,-1.72231842041016,3.63129867553711,14.444213104248,14.9929317684425
5.62542700002086,-1.63460083007813,3.51005081176758,15.0736541748047,15.5630147065563
5.63545000000158,-1.05934707641602,3.84670074462891,15.3094139099121,15.8207925563813
5.64547300001141,-0.242046661376953,3.9471418762207,15.0362319946289,15.5475653455324
5.65549699999974,0.701591033935547,3.64626754760742,14.81080078125,15.2691622818513
5.66552000000957,1.65016845703125,3.11681854248047,14.0916961669922,14.526304231502
5.67554300001939,2.3616389465332,2.47300735473633,12.8736790466309,13.3200869398824
5.68556600000011,2.73151977539063,2.16270263671875,11.7339491271973,12.2402632773104
5.69559000001755,2.69769012451172,1.86362457275391,10.3910916137695,10.8961191936309
5.70561299999827,2.47166015625,1.46874572753906,9.32710418701172,9.76018393553777
5.71563600000809,1.72082153320313,2.93779083251953,8.04023025512695,8.73138845088398
5.72565900001791,0.508342895507813,4.67133590698242,6.9169660949707,8.36206981639419
5.73568199999863,-0.25626708984375,5.31125518798828,8.90767639160156,10.3740928852004
5.74570600001607,-0.180075531005859,4.83404754638672,9.47978668212891,10.6426875560764
5.75572899999679,0.579894104003906,3.7363801574707,7.81584686279297,8.68241187894412
5.76575200000661,0.916693725585938,3.16022827148438,6.62836624145508,7.40017629150003
5.77577500001644,0.743354187011719,3.06951690673828,6.84242111206055,7.53612872520579
5.78579900000477,0.461340637207031,3.09990371704102,6.42583740234375,7.14937931290704
5.7958220000146,0.11735595703125,3.30602508544922,6.06014785766602,6.9042716011933
5.80584499999532,-0.344733123779297,3.56244186401367,6.26956237792969,7.2192274774978
5.81586800000514,-0.675245819091797,3.92723327636719,6.01554061889649,7.21566677866988
5.82589200002258,-0.988544311523438,4.29247375488281,6.11238922119141,7.53417897209377
5.8359150000033,-1.17385894775391,4.44635375976563,6.3418620300293,7.83372329062823
5.84593800001312,-1.03599563598633,4.45533508300781,6.35578308105469,7.83066256667238
5.85596100002294,-0.8047265625,4.41911041259766,6.45742172241211,7.86602930201775
5.86598400000366,-0.477507019042969,4.2249641418457,6.88747741699219,8.09417569136566
5.8760080000211,-0.183967437744141,3.81915802001953,7.26618988037109,8.21080552550339
5.88603100000182,0.0971479797363281,3.48131057739258,7.39282653808594,8.17207717098046
5.89605400001165,0.323776702880859,3.3531770324707,7.66915191650391,8.37642636706328
5.90607700002147,0.403710479736328,3.44688217163086,8.14127014160156,8.85009934266778
5.9161010000098,0.524209899902344,3.84071319580078,7.65343460083008,8.57909873242737
5.92612400001963,0.54366943359375,4.13889312744141,7.60777954101563,8.67780630793876
5.93614700000035,0.397423553466797,4.33872756958008,8.24126220703125,9.32206549906865
5.94617000001017,0.164358215332031,4.57822952270508,8.84405868530273,9.96014925664241
5.9561939999985,-0.0902622985839844,4.80470855712891,9.0626042175293,10.2578831541928
5.96621700000833,-0.362396392822266,5.00139953613281,9.28025161743164,10.5483836936472
5.97624000001815,-0.457598419189453,5.20557495117188,9.59774139404297,10.9281309816656
5.98626299999887,-0.411643981933594,5.29853164672852,9.69264404296875,11.0540145161359
5.99628700001631,-0.349822540283203,5.21320907592773,9.74802886962891,11.0600176999019
6.00630999999703,-0.277073822021484,5.03478012084961,10.2931951904297,11.4619216537384
6.01633300000685,-0.125588836669922,4.71025497436524,11.0745703125,12.0352973409856
6.02635600001668,0.135468292236328,4.20894744873047,11.8640286254883,12.5892321255421
6.03638000000501,0.385149078369141,3.62905334472656,12.146042175293,12.6824567223955
6.0464007499977,0.651145935058594,3.11038192749023,12.1669985961914,12.5751469813806
6.05642375000753,0.802032165527344,2.79319152832031,12.0878132629395,12.4322324619561
6.06644675001735,0.818048858642578,2.71984405517578,11.7484689331055,12.0869052239085
6.07647075000568,0.695753173828125,2.87492156982422,11.3670620727539,11.7456096766993
6.08649375001551,0.448766784667969,3.08777893066406,11.2805419921875,11.7041188471913
6.09651674999623,0.158220977783203,3.28746368408203,11.5206427001953,11.9815549732717
6.10653975000605,-0.0513432312011719,3.41754318237305,11.9613262939453,12.4400789483428
6.11656375002349,-0.105081481933594,3.42532699584961,12.6156156921387,13.072783423513
6.12658675000421,-0.022752685546875,3.31410827636719,13.2694560241699,13.6770718550999
6.13660975001403,0.209264831542969,3.17819091796875,13.7525015258789,14.1165147079611
6.14663275002386,0.618962860107422,2.94138336181641,13.7783976745605,14.1024499141709
6.15665675001219,0.965492248535156,2.53617599487305,13.2098799133301,13.4857440018545
6.16667975002201,1.19840789794922,2.09579177856445,12.1589154052734,12.3962796234016
6.17670275000273,1.2931608581543,1.6287629699707,11.0670858764648,11.260795869496
6.18672575001256,1.25289459228516,1.20319793701172,10.3244801330566,10.4695902571633
6.19674975000089,1.15155532836914,0.925076293945313,9.89083190917969,10.0005200704544
6.20677275001071,1.00845291137695,0.881965942382813,9.72632400512695,9.81815766071704
6.21679575002054,0.847387847900391,1.07236999511719,9.52050201416016,9.61810803499443
6.22681875000126,0.660276947021484,1.47727798461914,9.06365203857422,9.2069595506312
6.2368427500187,0.520916748046875,1.94176208496094,8.66817443847656,8.89826063614941
6.24686574999942,0.44307861328125,2.15851135253906,8.53360427856445,8.81350622055268
6.25688875000924,0.425265655517578,2.05043609619141,8.47103439331055,8.7260278910268
6.26691175001906,0.478405151367188,1.77560760498047,8.24231002807617,8.44495875979535
6.2769357500074,0.510438537597656,1.51095794677734,7.8031233215332,7.96443814645138
6.28695875001722,0.496816864013672,1.29705276489258,7.31184494018555,7.44259694599948
6.29698174999794,0.403261413574219,1.17790054321289,6.88178924560547,6.99350360536907
6.30700475000776,0.249830474853516,1.20828735351563,6.41476043701172,6.5323445300353
6.3170287499961,0.135019226074219,1.389111328125,5.83277069091797,5.9974223134749
6.32705175000592,-0.0414637756347656,1.60990219116211,5.34972518920899,5.58686530264115
6.33707475001575,-0.152233428955078,1.87574935913086,5.21066436767578,5.54009330496674
6.34709875000408,-0.272283782958984,2.17871932983398,5.19389923095703,5.63893124607764
6.3571217500139,-0.428259429931641,2.49037124633789,5.17488876342773,5.75889128198845
6.36714475002373,-0.532742156982422,2.78705429077148,5.2835627746582,5.99729284088145
6.37716775000445,-0.609682159423828,3.04646484375,5.49252822875977,6.31035076073013
6.38719175002188,-0.722846832275391,3.19705169677734,5.71182220458984,6.58548099926217
6.3972147500026,-0.81191162109375,3.30407913208008,5.97677124023438,6.87734933310842
6.40723775001243,-0.82433578491211,3.39015014648438,6.26866424560547,7.17417583601957
6.41726075002225,-0.815055084228516,3.52651657104492,6.59513534545899,7.52306082263752
6.42728475001059,-0.749341735839844,3.71602249145508,6.84706146240234,7.82640318818209
6.43730775002041,-0.716709594726563,3.95133316040039,7.02923263549805,8.09548132179945
6.44733075000113,-0.732127532958984,4.20460647583008,7.30436050415039,8.45981138771433
6.45735375001095,-0.769250335693359,4.42824142456055,7.64909362792969,8.87184882208849
6.46737774999929,-0.846639404296875,4.62822555541992,8.00729873657227,9.28730871294058
6.47740075000911,-0.902323608398438,4.83823883056641,8.4927392578125,9.81577113512043
6.48742375001893,-0.875978393554688,5.05513778686523,9.0816146850586,10.4306031214901
6.49744674999965,-0.751736755371094,5.21066436767578,9.63531326293945,10.9797719911171
6.50747075001709,-0.573756866455078,5.27577896118164,10.0716558837891,11.384256358257
6.51749374999781,-0.417182464599609,5.22263946533203,10.3842059326172,11.6310677516991
6.52751675000764,-0.222437438964844,5.13641876220703,10.6653213500977,11.8398207594479
6.53754074999597,-0.0278421020507813,5.10872634887695,10.9783204650879,12.1088141584766
6.54756375000579,0.121247863769531,5.07160354614258,11.2235105895996,12.3167793488626
6.55758675001562,0.172142028808594,5.00334548950195,11.3562844848633,12.4108136826942
6.56760974999634,0.144150238037109,4.98897537231445,11.472891998291,12.5115109143994
6.57763375001377,0.075443115234375,4.9913703918457,11.4175071716309,12.4610970651252
6.5876567500236,0.0077838134765625,5.01367401123047,11.0461294555664,12.1307033443149
6.59767975000432,-0.070653076171875,5.01397338867188,10.6749014282227,11.7940002332437
6.60770275001414,-0.16525634765625,4.90814346313477,10.8202491760254,11.8825491434469
6.61772675000248,-0.108973388671875,4.69139419555664,11.4082264709473,12.3356672259738
6.6277497500123,0.210162963867188,4.41551788330078,12.0081788635254,12.7959886787832
6.63777275002212,0.697100372314453,4.10581192016602,12.4306004333496,13.1096707657534
6.64779575000284,1.11787536621094,3.94055557250977,12.8899951171875,13.5251468633629
6.65781975002028,1.50661697387695,3.6690202331543,13.2100296020508,13.7926243428989
6.667842750001,1.86167861938477,3.16801208496094,12.9661866760254,13.4768002422634
6.67786575001082,2.26449096679688,2.59440490722656,12.4244631958008,12.8928717462462
6.68788974999916,2.57374786376953,2.08441543579102,11.70685546875,12.1663236329396
6.69791275000898,2.70068389892578,1.76887161254883,10.8425527954102,11.3129815444406
6.70793575001881,2.64784378051758,1.60571090698242,10.2038310241699,10.6633743145704
6.71795874999953,2.5005500793457,1.58580230712891,9.82736389160156,10.2637517855103
6.72798275001696,2.29637466430664,1.6667839050293,9.52693862915039,9.94052638588783
6.73800574999768,2.10207870483398,1.86033142089844,9.24028472900391,9.65724752452588
6.74802875000751,1.97229858398438,2.08651107788086,9.03027145385742,9.4757212238889
6.75805175001733,1.79282180786133,2.30251190185547,8.60021575927734,9.0818215242897
6.76807575000566,1.92110504150391,2.60907440185547,8.1527961730957,8.77302680122164
6.77809875001549,2.15611633300781,2.85905456542969,7.80117736816406,8.58378698355933
6.78812174999621,1.8299446105957,2.76490036010742,7.09045532226563,7.82738321255676
6.79814575001365,1.46021347045898,2.62928237915039,6.70276153564453,7.34658841996314
6.80816875002347,1.1210188293457,2.38439163208008,6.85394714355469,7.34292844289815
6.81819175000419,0.363893280029297,2.07483535766602,6.90843383789063,7.22245236558773
6.82821475001401,0.710272979736328,2.32227081298828,6.87879547119141,7.29487879056837
6.83823875000235,0.732127532958984,3.11786636352539,6.32584533691406,7.09037520952714
6.84826175001217,0.477507019042969,3.09825714111328,6.27899276733398,7.01804534310852
6.85828475002199,0.5221142578125,2.86354522705078,6.82251251220703,7.41749091976511
6.86830875001033,0.681682434082031,3.01458114624023,6.99689987182617,7.64911748141994
6.87833175002015,0.598156127929688,3.25453216552734,6.65890274047852,7.43577541867587
6.88835475000087,0.383053436279297,3.42068664550781,6.50681900024414,7.36114940506841
6.8983777500107,0.255219268798828,3.39209609985352,6.83912796020508,7.63839800493968
6.90840174999903,0.0600251770019531,3.14346313476563,7.14105010986328,7.80253549643211
6.91842475000885,0.241298217773438,2.99826507568359,7.25646011352539,7.85519138361056
6.92844775001868,0.525257720947266,2.88809417724609,7.30525863647461,7.87297830530762
6.93847175000701,0.490380249023438,2.91144561767578,7.11620178222656,7.70436994040916
6.94849475001684,0.596509552001953,2.99422348022461,7.11410614013672,7.74155695375865
6.95851774999755,0.722996520996094,3.0704150390625,7.53622833251953,8.16975580793843
6.96854075000738,0.692609710693359,3.20064422607422,8.43555816650391,9.04889348228388
6.97856474999571,0.454454956054688,3.64387252807617,9.3549462890625,10.049843599738
6.98858775000554,0.182320861816406,4.20041519165039,9.9921711730957,10.8406740303058
6.99861075001536,-0.0029937744140625,4.56685317993164,10.2559226989746,11.2267585409627
7.00863374999608,-0.0246986389160156,4.63705718994141,10.2981349182129,11.294002488014
7.01865775001352,0.216300201416016,4.52104843139648,10.3361558532715,11.2837397399658
7.02868075002334,0.426912231445313,4.2728645324707,10.4415367126465,11.2900537770087
7.03870375000406,0.537232818603516,3.96315856933594,10.8714427185059,11.5837606902439
7.04872612500913,0.650247802734375,3.65929046630859,11.6457824707031,12.2244622898807
7.05874912501895,0.717607727050781,3.46379699707031,12.1869071960449,12.6898998219784
7.06877212499967,0.596808929443359,3.4058674621582,12.0342247009277,12.5211292709751
7.07879512500949,0.377365264892578,3.34374664306641,11.7007182312012,12.174968307233
7.08881912499783,0.110919342041016,3.16067733764648,11.2089907836914,11.6466157626166
7.09884212500765,-0.347876586914063,2.55039642333984,10.609188079834,10.9169781418302
7.10886512501747,-0.483644256591797,1.92649383544922,11.3782887268066,11.550356904249
7.11888912500581,-0.495469665527344,1.89026916503906,12.8881988525391,13.0355006566048
7.12891212501563,-0.393082580566406,2.01301391601563,14.7763723754883,14.918040069671
7.13893512499635,-0.03113525390625,1.89999893188477,16.1292590332031,16.2408116270513
7.14895812500618,0.433797912597656,1.68489624023438,16.15201171875,16.2454467015212
7.15898212502361,0.958456878662109,1.35782638549805,15.1699040222168,15.2606788880665
7.16900512500433,1.42324035644531,1.24361389160156,13.4808164978027,13.6126632982319
7.17902812501416,1.7006135559082,0.659229125976563,11.6092584228516,11.7516616116881
7.18905212500249,1.85299667358398,0.123792572021484,10.2412532043457,10.4082749996684
7.19907512501231,1.59119110107422,-0.0543370056152344,9.24761947631836,9.38367239459582
7.20909812502214,1.13568832397461,0.00853225708007813,8.88312744140625,8.95543488105898
7.21912112500286,0.614921264648438,0.345780944824219,8.9907536315918,9.01838918474366
7.2291451250203,0.130079498291016,0.926273803710938,9.24657165527344,9.29376087552413
7.23916812500102,-0.0160166931152344,1.28777206420898,9.24432632446289,9.33360501719314
7.24919112501084,0.346679077148438,1.36246673583984,9.22636367797852,9.33286069258102
7.25921512499917,0.352666625976563,1.28642486572266,9.11739028930664,9.21444889137545
7.269238125009,0.170196075439453,1.07955505371094,8.88941436767578,8.95634376396576
7.27926112501882,0.763412475585938,0.940793609619141,8.71457794189453,8.79839530420947
7.28928412499954,0.92687255859375,0.980161743164063,8.10280014038086,8.21432772036718
7.29930812501698,0.541723480224609,0.873882751464844,7.43264373779297,7.50342110808713
7.3093311249977,0.0919088745117188,0.808169403076172,6.87759796142578,6.92552804804735
7.31935412500752,-0.289497985839844,0.900826721191406,6.32839004516602,6.39873568989798
7.32937812499586,-0.558937683105469,0.978664855957031,5.9682389831543,6.07371984815923
7.33940112500568,-0.864751739501953,0.876876525878906,5.91375228881836,6.04062696631016
7.3494241250155,-0.457149353027344,1.03240310668945,5.37771697998047,5.49496875536573
7.35944712499622,-0.330662384033203,1.22879470825195,5.17533782958984,5.32948362391951
7.36947112501366,-0.323028259277344,1.31112350463867,5.14180755615234,5.316161871615
7.37949412502348,-0.356259155273438,1.34046249389648,5.52186721801758,5.69339774270835
7.3895171250042,-0.413589935302734,1.49988098144531,5.78277465820313,5.98842068834859
7.39954112502164,-0.4263134765625,1.79716278076172,5.79774353027344,6.08484735089398
7.40956412500236,-0.426912231445313,2.11120971679688,6.00027236938477,6.375165019704
7.41958712501219,-0.544717254638672,2.34367630004883,6.41984985351563,6.85594688052615
7.42961012502201,-0.455353088378906,2.22856567382813,7.16754501342774,7.5198106968975
7.43963412501034,-0.525557098388672,2.33828750610352,7.85252059936524,8.21010831160722
7.44965712502017,-0.716709594726563,2.51536926269531,8.25009384155274,8.65475612396513
7.45968012500089,-0.926273803710938,2.66161514282227,8.59931762695313,9.04933378637172
7.46970412501833,-1.04138442993164,2.77792327880859,9.08251281738281,9.55475684419933
7.47972712499904,-1.12805419921875,2.84857635498047,9.3067465209961,9.79808268655668
7.48975012500887,-1.18029556274414,2.89183639526367,9.60762084960938,10.1025835182024
7.49977312501869,-1.19571350097656,2.96278884887695,10.0972526550293,10.5906732420061
7.50979712500703,-1.12820388793945,3.13058990478516,10.4553080749512,10.9720966139951
7.51982012501685,-0.983604583740234,3.30273193359375,10.6024520874023,11.1484306728793
7.52984312499757,-0.814905395507813,3.20543426513672,11.0742709350586,11.5576103228489
7.53986712501501,-0.799487457275391,2.9217741394043,11.7055082702637,12.0911069874203
7.54989012499573,-0.887504425048828,2.79528717041016,12.2434895324707,12.589850293044
7.55991312500555,-0.826431427001953,2.74843460083008,12.675940246582,12.9967820168492
7.56993712502299,-0.654139709472656,2.68661315917969,13.0143864440918,13.3048879567904
7.57996012500371,-0.491727447509766,2.67359024047852,13.0853388977051,13.3647287561106
7.58998312501353,-0.288150787353516,2.57823852539063,13.0473179626465,13.3027384695204
7.60000612502336,-0.0758921813964844,2.46956451416016,12.601844329834,12.841767363808
7.61003012501169,0.211210784912109,2.28529769897461,11.8499578857422,12.0701573089362
7.62005312502151,0.340541839599609,2.00148788452148,11.5636033630371,11.7404789184278
7.63007612500223,0.329764251708984,1.67546585083008,12.0569773864746,12.1772999460867
7.64010012501967,0.635727996826172,0.910406799316406,12.8864025878906,12.9341548731792
7.65012312500039,1.14122680664063,0.126786346435547,13.7712126159668,13.8190003370722
7.66014612501022,1.61319534301758,-0.551303558349609,14.4076890563965,14.5081990189682
7.67016912502004,1.73459289550781,-0.895437927246094,14.8714247131348,14.9989964528675
7.68019312500837,1.56050491333008,-0.545914764404297,14.9127388000488,15.0040986744624
7.6902161250182,1.44943588256836,0.0208067321777344,14.0102655029297,14.0850572153741
7.70023912499892,1.41141494750977,0.374670867919922,12.9464277648926,13.0285249466278
7.71026312501635,1.36845428466797,0.324076080322266,12.2241796875,12.3048064376223
7.72028612499707,1.27160568237305,0.0405656433105469,11.6543147277832,11.7235522925897
7.7303091250069,1.26217529296875,-0.0980461120605469,11.1917765808105,11.2631506491323
7.74033212501672,1.23014190673828,0.0312849426269531,10.8681495666504,10.9375912732846
7.75035612500506,1.2120295715332,0.310454406738281,10.5780528259277,10.6517885450779
7.76037912501488,1.29854965209961,0.737366638183594,10.0578845214844,10.1681356110936
7.7704021249956,1.32893646240234,1.10590026855469,9.41033111572266,9.56783252532306
7.78042612501304,1.20409606933594,1.30319000244141,8.69541778564453,8.87459531435416
7.79044912502286,0.967138824462891,1.37728591918945,7.99756896972656,8.17272191099845
7.80047212500358,0.689166870117188,1.46934448242188,7.40659790039063,7.58232264157636
7.81049612502102,0.352816314697266,1.72740783691406,6.75649978637695,6.98274348306312
7.82051912500174,0.0305364990234375,1.97095138549805,6.23977432250977,6.54372718239548
7.83054212501156,-0.213905181884766,2.23545135498047,5.83845886230469,6.25544563353766
7.84056512502139,-0.397872619628906,2.56057525634766,5.59626251220703,6.16709026773599
7.85058912500972,-0.508492584228516,2.88510040283203,5.6904167175293,6.40025089053342
7.86061212501954,-0.574205932617188,3.13717620849609,5.69206329345703,6.52465873076344
7.87063512500026,-0.546363830566406,3.14451095581055,5.88935302734375,6.69857758537189
7.8806591250177,-0.458646240234375,3.0418244934082,6.0688298034668,6.8039508967824
7.89068212499842,-0.343236236572266,3.10783721923828,6.14112945556641,6.89129409366661
7.90070512500824,-0.399219818115234,3.27533889770508,6.10520416259766,6.93979388923011
7.91072812501807,-0.373173980712891,3.18896850585938,6.23543334960938,7.01351609456091
7.9207521250064,-0.394729156494141,3.01742523193359,6.43721374511719,7.12027997606988
7.93077512501623,-0.320782928466797,2.89168670654297,6.85230056762695,7.44437887033524
7.94079812499695,-0.366138610839844,2.94767028808594,7.34223175048828,7.92030205784417
7.95082212501438,-0.490529937744141,3.02041900634766,7.79369293212891,8.37288481433045
7.96084512502421,-0.492924957275391,3.01832336425781,8.19276306152344,8.74497670248426
7.97086812500493,-0.390088806152344,2.98928375244141,8.65215774536133,9.16230431059303
7.98089212502237,-0.1293310546875,3.10110122680664,8.98252075195313,9.50364321720238
7.99091512500308,0.156424713134766,3.17893936157227,9.26902496337891,9.80025244201261
8.00093812501291,0.197738800048828,3.26800415039063,9.86119354248047,10.3904807320101
8.01096112502273,0.148940277099609,3.5591487121582,10.3340602111816,10.9308061555279
8.02098512501107,0.254171447753906,3.8031413269043,10.8407565307617,11.4913223449921
8.03100812502089,0.496816864013672,3.88906265258789,10.3949835205078,11.1097847730616
8.04103137500351,0.953666839599609,3.50466201782227,10.252180480957,10.8765500465099
8.05105537502095,1.09946365356445,3.28821212768555,10.6362817382813,11.1871197606114
8.06107837500167,1.24032073974609,3.0849348449707,10.9161996459961,11.4113379253444
8.07110137501149,1.22430404663086,3.01802398681641,11.417956237793,11.8733783664023
8.08112437502132,1.18373840332031,3.09646087646484,11.9571350097656,12.4081579700105
8.09114837500965,1.10904373168945,3.12579986572266,12.2916893005371,12.7313089924128
8.10117137501948,0.972527618408203,3.11651916503906,12.2645956420898,12.6916826283433
8.1111943750002,0.739162902832031,3.14121780395508,11.9783908081055,12.40546079114
8.12121837501763,0.396974487304688,3.14750473022461,11.6409924316406,12.0655327094941
8.13124137499835,0.0675096130371094,3.11711791992188,11.4972912597656,11.9125433047034
8.14126437500818,-0.106129302978516,2.88525009155273,11.5788716125488,11.9334068622353
8.15128837499651,-0.137713623046875,2.41462875366211,12.2934855651855,12.5291334257965
8.16131137500634,-0.0923579406738281,2.0787272644043,13.318853302002,13.4804113553419
8.17133437501616,0.121397552490234,1.98741714477539,14.2277632141113,14.3664125776033
8.18135737499688,0.49576904296875,1.87604873657227,14.586417388916,14.7149216120791
8.19138137501432,0.856518859863281,1.65600631713867,14.2641375732422,14.3854649625267
8.20140437502414,1.16158447265625,1.51005981445313,13.2975975036621,13.4333785214198
8.21142737500486,1.24256607055664,1.4898518371582,12.2183418273926,12.3713987061849
8.2214513750223,1.04138442993164,1.55990615844727,11.3375733947754,11.4916647721722
8.23147437500302,0.759520568847656,1.61529098510742,10.5150338745117,10.6654570386459
8.24149737501284,0.568218383789063,1.58894577026367,9.75551330566406,9.90038689393012
8.25152137500118,0.423619079589844,1.5233821105957,9.25375671386719,9.38787300185285
8.261544375011,0.433199157714844,1.41740249633789,9.11454620361328,9.23426466182722
8.27156737502082,0.734821929931641,1.29136459350586,9.31018936157227,9.42800147064066
8.28159037500154,1.0922785949707,1.21367614746094,9.64189956665039,9.77917734644995
8.29161437501898,1.25304428100586,1.29600494384766,9.90684860229492,10.0695281921961
8.3016373749997,1.25633743286133,1.34959350585938,9.99112335205078,10.1598391823966
8.31166037500952,1.18074462890625,1.36605926513672,9.96088623046875,10.1232173883059
8.32168437499786,1.09153015136719,1.51230514526367,9.65761688232422,9.8360596159991
8.33170737500768,0.949176177978516,1.67232238769531,8.91965148925781,9.1245701419326
8.34173037501751,0.739761657714844,1.77905044555664,8.02361480712891,8.25170663385693
8.35175337499823,0.461640014648438,1.91526718139648,7.10916641235352,7.37710017268265
8.36177737501566,0.182171173095703,2.04429885864258,6.29860198974609,6.62455516883872
8.37180037499638,-0.0896635437011719,2.14414123535156,5.73502395629883,6.12338803012886
8.38182337500621,-0.30895751953125,2.29817092895508,5.35945495605469,5.83958918020337
8.39184737502364,-0.374970245361328,2.46567260742188,5.08851837158203,5.66684774013073
8.40187037500436,-0.328566741943359,2.55937774658203,5.11037292480469,5.72488270484098
8.41189337501419,-0.264350280761719,2.69948638916016,5.30571670532227,5.95883693293712
8.42191737500252,-0.159418487548828,2.86713775634766,5.34508483886719,6.06760456051105
8.43194037501235,-0.0100291442871094,2.83136215209961,5.48369659423828,6.17151849691288
8.44196337502217,0.0749940490722656,2.73930358886719,5.49552200317383,6.1408607170937
8.45198637500289,0.158819732666016,2.74529113769531,5.67529815673828,6.30641390221649
8.46201037502033,0.238903198242188,2.82806900024414,6.14172821044922,6.76578705098675
8.47203337500105,0.287552032470703,2.80172378540039,6.59513534545899,7.17134245214791
8.48205637501087,0.291294250488281,2.61461288452148,6.89166870117188,7.37673033009784
8.49208037499921,0.435294799804688,2.30251190185547,6.28348342895508,6.70620657472435
8.50210337500903,0.207917633056641,2.49875381469727,5.2784733581543,5.84373864587943
8.51212637501885,-0.0535885620117188,1.88622756958008,4.41042846679688,4.7971455511538
8.52215037500719,0.163909149169922,2.43693237304688,5.26095977783203,5.80027614721506
8.53217337501701,0.0242495727539063,3.59836715698242,6.68509826660156,7.59205987017672
8.54219637499773,-0.0920585632324219,4.10685974121094,7.28115875244141,8.36002658436549
8.55221937500755,0.0901126098632813,4.22301818847656,7.32292190551758,8.45382683386462
8.56224337499589,0.367635498046875,4.0905436706543,7.56481887817383,8.6077980947818
8.57226637500571,0.650547180175781,4.02438125610352,8.26027267456055,9.21145812486838
8.58228937501553,0.848884735107422,3.83742004394531,9.29656768798828,10.0931941755085
8.59231337500387,1.15844100952148,3.55121520996094,10.2936442565918,10.9504441517805
8.60233637501369,1.63385238647461,3.97887588500977,11.2043504333496,12.0015997084723
8.61235937502352,1.47488296508789,4.60217971801758,11.6182397460938,12.5832759135033
8.62238337501185,1.11907287597656,5.14150817871094,11.6379986572266,12.7722528631054
8.63240637502167,0.910406799316406,5.64461196899414,11.8117872619629,13.1228351792828
8.64242937500239,0.80278060913086,5.90507034301758,12.5310415649414,13.8759257408171
8.65245237501222,0.583037567138672,5.50629959106445,13.8325849914551,14.8996535374847
8.66247637500055,0.606089630126953,4.29471908569336,15.2471434020996,15.8520452493978
8.67249937501038,0.947529602050781,3.44478652954102,15.7123759460449,16.1134454556039
8.6825223750202,1.37040023803711,3.47936462402344,15.2210975646973,15.6737291693251
8.69254637500853,1.68504592895508,3.74910369873047,14.5599224853516,15.1289953766259
8.70256937501836,1.86676803588867,3.80059661865234,13.8465060424805,14.4794712314357
8.71259237499908,1.9544856262207,3.62845458984375,12.9804071044922,13.6189818037918
8.7226153750089,1.86272644042969,3.33716033935547,12.0228483581543,12.6156756285827
8.73263937499723,1.50766479492188,3.04990768432617,11.352392578125,11.8512365289292
8.74266237500706,1.13568832397461,2.84722915649414,11.114387512207,11.5293586816573
8.75268537501688,0.919388122558594,2.91129592895508,10.8897047424316,11.3095794741975
8.76270937500522,0.975970458984375,3.1663655090332,10.741812286377,11.2412152398824
8.77273237501504,1.32549362182617,3.1374755859375,10.5608386230469,11.0964858768844
8.78275537499576,1.77620635986328,2.72134094238281,10.1930534362793,10.6985486825248
8.79277837500558,2.12078979492188,2.98344589233398,7.37456451416016,8.23303713827647
8.80280237502302,2.68496658325195,3.28911026000977,7.72274047851563,8.81294572513555
8.81282537500374,2.49770599365234,2.63272521972656,9.4077864074707,10.0834628179957
8.82284837501356,1.60690841674805,2.07932601928711,9.60462707519531,9.95764091579301
8.8328723750019,0.525557098388672,1.95179122924805,9.11634246826172,9.33774058671949
8.84289537501172,-0.221838684082031,2.49695755004883,8.88252868652344,9.22948131128791
8.85291837502155,-0.345182189941406,4.09383682250977,8.10100387573242,9.08322159083556
8.86294237500988,-0.951421508789063,4.87491256713867,7.66151779174805,9.13065333357394
8.8729653750197,-0.929417266845703,4.87850509643555,7.11081298828125,8.6733666927075
8.88298837500042,-0.550704803466797,4.61684921264649,7.06590637207031,8.45846353020096
8.89301137501025,-1.05904769897461,4.20864807128906,6.56594604492188,7.87057482535385
8.90303537499858,-1.04827011108398,4.62493240356445,6.02512069702148,7.66752563588862
8.9130583750084,-1.01459014892578,4.78090805053711,5.93246337890625,7.68639035569048
8.92308137501823,-1.21801712036133,4.52913162231445,6.18902984619141,7.7653518526072
8.93310537500656,-1.02551742553711,4.32211212158203,6.47313903808594,7.85072405501548
8.94312837501639,-0.661923522949219,4.09263931274414,6.72416702270508,7.89951020277123
8.95315137499711,-0.335602111816406,3.70344863891602,7.041357421875,7.96296897778327
8.96317437500693,0.24189697265625,3.25887313842773,7.39297622680664,8.08299856290191
8.97319837499526,0.847238159179688,3.61543167114258,7.93305313110352,8.7591375516076
8.98322137500509,1.16592544555664,3.88517074584961,8.01762725830078,8.98533698433452
8.99324437501491,1.06548431396484,3.89295455932617,7.98798889160156,8.9497663967633
9.00326837500325,0.874032440185547,4.04548736572266,8.41400299072266,9.37685166037131
9.01329137501307,0.623303833007813,4.33723068237305,8.78762603759766,9.81949331875248
9.02331437502289,0.228724365234375,4.8042594909668,8.77789627075195,10.0092300918641
9.03333837501123,0.00523910522460938,5.43834091186524,8.76696899414063,10.3167497142324
9.04336141666863,-0.082628173828125,5.97527435302734,8.74212066650391,10.5894005853387
9.05338441667846,0.0249980163574219,6.00341583251953,8.54123840332031,10.4400373572762
9.06340741668828,0.140408020019531,6.10415634155274,9.24896667480469,11.0825910150042
9.07343141667661,0.188607788085938,6.35069366455078,10.0340840148926,11.876435700016
9.08345441668644,0.346529388427734,6.13738723754883,10.1259928894043,11.8458151562878
9.09347741666716,0.656085662841797,5.5805451965332,10.2777772521973,11.7134810510505
9.10350141668459,0.911304931640625,5.11291763305664,10.6280488586426,11.8291092624317
9.11352441666531,1.01009948730469,4.92296264648438,11.1542047119141,12.2340567657756
9.12354741667514,1.03719314575195,4.87506225585938,11.6737742614746,12.6932662119711
9.13357041668496,0.923878784179688,4.84437606811524,11.6308135986328,12.6331847316236
9.1435944166733,0.644859008789063,4.83764007568359,11.116932220459,12.1410372965968
9.15361741668312,0.256566467285156,4.82326995849609,10.4647384643555,11.5256457767896
9.16364041666384,-0.197140045166016,4.75441314697266,10.046957244873,11.1168636966467
9.17366441668128,-0.809965667724609,4.72267913818359,10.1182090759277,11.1954409260785
9.183687416662,-1.30094467163086,4.88419326782227,10.3310664367676,11.5012492641882
9.19371041667182,-1.54149444580078,5.14959136962891,10.3428918457031,11.6563248124142
9.20373441668926,-1.58295822143555,5.36843627929688,10.3207379150391,11.740676979059
9.21375741666998,-1.40931930541992,5.32802032470703,10.5196742248535,11.8759221655486
9.2237804166798,-0.965342559814453,5.01082992553711,10.8132138061523,11.956834682223
9.23380341668963,-0.470022583007813,4.39321426391602,11.0673852539063,11.916722248823
9.24382741667796,0.0857716369628906,3.59073303222656,11.1042086791992,11.6706542607359
9.25385041668778,0.375119934082031,2.90605682373047,10.9010810852051,11.2880224155479
9.2638734166685,0.427510986328125,2.44411743164063,10.5823937988281,10.8693851793262
9.27389741668594,0.423469390869141,2.19937637329102,10.3131037902832,10.5535156486143
9.28392041666666,0.288300476074219,2.13096862792969,10.2226918029785,10.4464143205413
9.29394341667648,0.127684478759766,2.17512680053711,10.1225500488281,10.3543951738168
9.30396641668631,0.0065863037109375,2.33499435424805,9.66584976196289,9.94388724969289
9.31399041667464,-0.0525407409667969,2.53318222045898,9.03371429443359,9.38231137007106
9.32401341668447,0.0380209350585938,2.70233047485352,8.56788299560547,8.98402218459027
9.33403641666519,0.252674560546875,2.77971954345703,8.18917053222656,8.65177433707748
9.34406041668262,0.549357604980469,2.76235565185547,7.96463745117188,8.44794958875214
9.35408341666334,0.796194305419922,2.60667938232422,7.82632507324219,8.28734377990177
9.36410641667317,0.854572906494141,2.45384719848633,7.62304779052734,8.05372699703043
9.37412941668299,0.853824462890625,2.42735229492188,7.46437774658203,7.89544112262019
9.38415341667133,0.776884460449219,2.50369354248047,7.12967376708984,7.59633324997495
9.39417641668115,0.670455780029297,2.6297314453125,6.77910278320313,7.30213893134556
9.40419941669097,0.541723480224609,2.7301725769043,6.32584533691406,6.91112334250115
9.41422341667931,0.351020050048828,2.77507919311523,5.84579360961914,6.48055418385352
9.42424641668913,0.129181365966797,2.79169464111328,5.45510604858399,6.12930899823391
9.43426941666985,-0.0345780944824219,2.82372802734375,5.29359191894531,5.99972924566999
9.44429341668729,-0.153131561279297,2.89468048095703,5.28550872802734,6.02820262399554
9.45431641666801,-0.229323120117188,3.05409896850586,5.30182479858399,6.12286336592031
9.46433941667783,-0.31374755859375,3.27908111572266,5.38295608520508,6.31086576542861
9.47436241668765,-0.372126159667969,3.50690734863281,5.63248718261719,6.64543368734885
9.48438641667599,-0.401614837646484,3.74610992431641,5.96734085083008,7.05718009355473
9.49440941668581,-0.419577484130859,3.93935806274414,6.26911331176758,7.41595367619555
9.50443241666653,-0.4358935546875,4.05596557617188,6.59408752441406,7.75389258538849
9.51445641668397,-0.407901763916016,4.25071060180664,7.04045928955078,8.23425719036873
9.52447941666469,-0.357157287597656,4.51401306152344,7.50494338989258,8.76516118124365
9.53450241667451,-0.3305126953125,4.59888656616211,7.98379760742188,9.21954557049665
9.54452541668434,-0.307610321044922,4.50832489013672,8.42058929443359,9.55646071985697
9.55454941667267,-0.288450164794922,4.38632858276367,8.77086090087891,9.81076362349568
9.5645724166825,-0.343086547851563,4.36013305664063,9.04988067626953,10.0513088155545
9.57459541666322,-0.355959777832031,4.42150543212891,9.40060134887695,10.3946006835418
9.58461941668065,-0.363743591308594,4.56790100097656,9.74668167114258,10.7701361436858
9.59464241669048,-0.411194915771484,4.80919921875,10.1023420715332,11.1961955018056
9.6046654166712,-0.439935150146484,5.03732482910156,10.5112916564941,11.6642803746352
9.61468941668863,-0.389490051269531,5.14031066894531,10.8575216674805,12.0191627426006
9.62471241666935,-0.354163513183594,5.18551666259766,11.0031687927246,12.1690072862718
9.63473541667918,-0.366138610839844,5.15812362670899,11.0958261108398,12.2416360799019
9.644758416689,-0.425115966796875,5.04915023803711,11.2378807067871,12.3273924449363
9.65478241667734,-0.542022857666016,4.85545303344727,11.3142219543457,12.3239941321977
9.66480541668716,-0.656085662841797,4.7039680480957,11.2907208251953,12.2490056962592
9.67482841666788,-0.711620178222656,4.6416975402832,11.1161837768555,12.0673651264205
9.6848514166777,-0.674497375488281,4.56206314086914,10.9798173522949,11.9089779536522
9.69487541666604,-0.483943634033203,4.3782453918457,11.0718759155273,11.9159418612619
9.70489841667586,-0.241747283935547,4.15835266113281,11.3655651855469,12.1048093991833
9.71492141668568,0.0594264221191406,3.83816848754883,11.9074383544922,12.5108815438597
9.72494541667402,0.451012115478516,3.49807571411133,12.6611210632324,13.1432085963737
9.73496841668384,0.792152709960938,3.2715966796875,13.1506031799316,13.5745797263292
9.74499141666456,1.00950073242188,3.17714309692383,13.4029783630371,13.8113416794724
9.755015416682,1.13898147583008,3.08807830810547,13.3923504638672,13.7908867512687
9.76503841666272,1.27564727783203,2.81684234619141,13.0679750061035,13.4288438646402
9.77506141667254,1.46335693359375,2.31104415893555,12.6350752258301,12.9277787953705
9.78508441668237,1.64148651123047,1.7676741027832,12.1623582458496,12.399278519357
9.7951084166707,1.71543273925781,1.26501937866211,11.7941239929199,11.9851718499018
9.80513141668052,1.6908837890625,0.956660614013672,11.4701976013184,11.6335600970558
9.81515441669035,1.59433456420898,0.943188629150391,11.1124415588379,11.2657829240305
9.82517841667868,1.52502868652344,1.12446166992188,10.8064778137207,10.9713303332039
9.83520141668851,1.49568969726563,1.46694946289063,10.585986328125,10.791299038412
9.84522441666923,1.561552734375,1.89176605224609,10.1655107116699,10.4572861569214
9.85524741667905,1.64687530517578,2.22018310546875,9.39281753540039,9.79114051303176
9.86527141666738,1.6428337097168,2.37196746826172,8.62162124633789,9.09161620305096
9.87529441667721,1.4036311340332,2.39906112670898,7.96523620605469,8.43627064930696
9.88531741668703,0.977766723632813,2.36238739013672,7.63247817993164,8.049324512905
9.89534141667537,0.457598419189453,2.34382598876953,7.52290603637695,7.89284687619321
9.90536441668519,-0.0452059936523438,2.35280731201172,7.43967910766602,7.80298475292372
9.91538741666591,-0.433797912597656,2.38573883056641,7.41587860107422,7.80225517542954
9.92541041667573,-0.659827880859375,2.52869155883789,7.42111770629883,7.86782319595702
9.93543441666407,-0.690514068603516,2.82582366943359,7.35869750976563,7.91280722183356
9.94545741667389,-0.616717529296875,3.17968780517578,7.17907104492188,7.87590097178483
9.95548041668371,-0.421373748779297,3.47247894287109,6.97669189453125,7.80447920338452
9.96550441667205,-0.202678527832031,3.53744384765625,6.88074142456055,7.73945670655433
9.97552741668187,-0.0772393798828125,3.42053695678711,6.7777555847168,7.59236522835347
9.98555041666259,-0.00389190673828125,3.30363006591797,6.67132690429688,7.44450061611728
9.99557341667241,0.0817300415039063,3.13537994384766,6.42239456176758,7.14733790295297
10.0055974166899,-0.0492475891113281,2.85456390380859,6.17705474853516,6.80492217239558
10.0156204166706,0.067060546875,2.68766098022461,6.48676071166992,7.02182904890411
10.0256434166804,0.538130950927734,2.9458740234375,7.03282516479492,7.64384644540188
10.0356674166687,0.513432312011719,3.20214111328125,6.91037979125977,7.63352273251578
10.0456905000028,0.1293310546875,3.44523559570313,6.61354705810547,7.458242388216
10.0557135000126,-0.05748046875,3.87783599853516,6.97055465698242,7.97681316452894
10.0657365000225,-0.171094207763672,4.27960052490234,7.67753448486328,8.79140430460001
10.0757605000108,-0.160316619873047,4.49739761352539,8.24575286865234,9.39386646081579
10.0857835000206,-0.0380209350585938,4.53541854858398,8.36505477905273,9.51554562066177
10.0958065000013,0.09340576171875,4.50592987060547,8.43690536499024,9.56522350878106
10.1058305000188,0.240100708007813,4.43782150268555,8.89001312255859,9.93902617759648
10.1158534999995,0.312699737548828,4.20730087280274,9.42006088256836,10.3216621137995
10.1258765000093,0.296982421875,3.86122055053711,9.82047821044922,10.5564679216441
10.1358995000192,0.243693237304688,3.55570587158203,10.1128202819824,10.722479409856
10.1459235000075,0.0471519470214844,3.25153839111328,10.082283782959,10.5937326516724
10.1559465000173,-0.0211061096191406,3.06787033081055,10.5051544189453,10.9439729166522
10.165969499998,-0.0365240478515625,3.13298492431641,10.9229356384277,11.3634260460171
10.1759935000155,-0.249680786132813,3.3432975769043,10.5494622802734,11.0693781932686
10.1860164999962,-0.556692352294922,3.66617614746094,10.2833157348633,10.9314837246461
10.196039500006,-0.875529327392578,4.05192398071289,10.4171374511719,11.211663222966
10.2060625000158,-1.0347981262207,4.09174118041992,11.0590026855469,11.8370052567576
10.2160865000042,-0.994831237792969,3.45331878662109,12.5985511779785,13.1010912376742
10.226109500014,-0.959355010986328,2.61131973266602,14.3774519348145,14.6441277282471
10.2361325000238,-0.763711853027344,2.24757614135742,14.9595913696289,15.1467563607503
10.2461565000121,-0.384700012207031,2.28769271850586,14.4762464904785,14.6609428253025
10.256179500022,0.0124241638183594,2.35385513305664,13.6433784484863,13.8449472312423
10.2662025000027,0.437240753173828,2.24443267822266,12.4645797729492,12.6725848365487
10.2762255000125,0.715212707519531,2.05941741943359,11.0874435424805,11.2997404232202
10.2862495000009,0.86505111694336,1.87530029296875,9.70327194213867,9.92061243103616
10.2962725000107,0.800086212158203,1.84296752929688,8.92788436889649,9.15116312636347
10.3062955000205,0.565523986816406,1.95598251342773,9.26962371826172,9.49060634789264
10.3163195000088,0.38080810546875,2.27302322387695,10.0237554931641,10.2852964748816
10.3263425000187,0.158370666503906,2.66131576538086,10.2087707519531,10.5511460579885
10.3363654999994,0.239501953125,2.77433074951172,9.94980926513672,10.3321332117737
10.3463885000092,0.487536163330078,2.54171447753906,9.53786590576172,9.88275720799505
10.3564124999975,0.709973602294922,2.26224563598633,9.25330764770508,9.55225210390577
10.3664355000074,0.920735321044922,1.99130905151367,8.86276977539063,9.13026578811579
10.3764585000172,0.899778900146484,1.98606994628906,8.3343685913086,8.61485784656327
10.3864825000055,0.769849090576172,2.34966384887695,7.88260803222656,8.26130118169668
10.3965055000153,0.740510101318359,2.14459030151367,7.88305709838867,8.20306113520782
10.4065284999961,0.723894653320313,2.17647399902344,7.55149658203125,7.89215833381214
10.4165515000059,0.583786010742188,2.53063751220703,6.81098648071289,7.28933941897216
10.4265755000233,0.549656982421875,2.68062561035156,6.35129241943359,6.91569171221162
10.436598500004,0.518970794677734,2.64544876098633,5.75837539672852,6.35819290698079
10.4466215000139,0.127385101318359,2.63332397460938,5.0488508605957,5.69574552906188
10.4566455000022,0.0652642822265625,2.49216751098633,5.12249771118164,5.69694138379635
10.466668500012,0.0511935424804688,2.43558517456055,5.47531402587891,5.99280899105896
10.4766915000218,-0.0540376281738281,2.55368957519531,5.61946426391602,6.17273271129968
10.4867145000026,0.00703536987304688,2.69349884033203,6.06688385009766,6.6379262687887
10.49673850002,-0.130827941894531,2.88090911865234,6.52268600463867,7.13177299242087
10.5067615000007,-0.309406585693359,3.07894729614258,6.89481216430664,7.5573860341235
10.5167845000105,-0.527652740478516,3.26111846923828,7.12323715209961,7.85199456252955
10.5268084999989,-0.630937957763672,3.30752197265625,6.99450485229492,7.76278831573605
10.5368315000087,-0.646206207275391,3.18986663818359,7.03342391967774,7.74996023638914
10.5468545000185,-0.630937957763672,3.13717620849609,7.21320007324219,7.89114773441241
10.5568774999992,-0.568068695068359,3.32967590332031,7.54371276855469,8.26541263325211
10.5669015000167,-0.470471649169922,3.78143646240234,8.00640060424805,8.86696430169661
10.5769244999974,-0.365390167236328,4.23649017333984,8.61204116821289,9.60461410188414
10.5869475000072,-0.386346588134766,4.44006683349609,9.32710418701172,10.3372302715692
10.5969714999956,-0.280965728759766,4.50084045410156,9.45838119506836,10.4784293367488
10.6069945000054,0.0847238159179688,4.46356796264649,9.18415145874024,10.2117214562104
10.6170175000152,0.216000823974609,4.19712203979492,10.387349395752,11.2053343208634
10.6270404999959,0.1101708984375,4.04249359130859,11.1196266174316,11.832159066448
10.6370645000134,0.195792846679688,4.09847717285156,11.833941192627,12.5250953739183
10.6470875000232,0.291443939208984,4.12796585083008,12.149035949707,12.834489321457
10.6571105000039,0.469423828125,4.02063903808594,12.3987167358398,13.0427786035257
10.6671335000137,0.692310333251953,3.99234786987305,12.4609872436523,13.1032186197924
10.6771575000021,0.892294464111328,4.12227767944336,12.2137014770508,12.9214498585737
10.6871805000119,1.00950073242188,4.43422897338867,11.6133000183105,12.4719772142388
10.6972035000217,1.04033660888672,4.85455490112305,11.0308612060547,12.0966483992489
10.70722750001,1.08524322509766,5.00304611206055,10.8263864135742,11.9757616055535
10.7172505000199,1.10275680541992,4.75785598754883,11.4672038269043,12.4639492047233
10.7272735000006,1.14901062011719,4.43108551025391,12.6576782226563,13.4599985955657
10.7372965000104,1.35662887573242,4.17406997680664,13.6111953735352,14.3013265669411
10.7473204999988,1.68998565673828,3.9947428894043,14.2963206481934,14.9398395690311
10.7573435000086,2.12363388061523,3.91226440429688,14.4259510803223,15.0971420540404
10.7673665000184,2.68152374267578,3.74356521606445,13.6587963867188,14.4141447489368
10.7773905000067,3.14091842651367,3.41230407714844,12.4033570861816,13.242071389487
10.7874135000166,3.32668212890625,3.04017791748047,11.1223210144043,12.0006466702499
10.7974364999973,3.22519317626953,2.79813125610352,10.2393072509766,11.0939092537545
10.8074595000071,2.89213577270508,2.73361541748047,9.90355545043945,10.6732147518157
10.8174834999954,2.60248809814453,2.87507125854492,9.88005432128906,10.6138801780648
10.8275065000053,2.42420883178711,3.00470169067383,9.9921711730957,10.7120728835505
10.8375295000151,2.37930221557617,2.98135025024414,9.95519805908203,10.6609332022683
10.8475535000034,2.49351470947266,2.78570709228516,9.67692672729492,10.3740392565191
10.8575765000132,2.64978973388672,2.51042953491211,9.19777313232422,9.8955885462804
10.8675995000231,2.69140319824219,2.30730194091797,8.92518997192383,9.60345299655295
10.8776225000038,2.53348159790039,2.27661575317383,8.77295654296875,9.41096566773662
10.8876465000212,2.23126007080078,2.37780532836914,8.49678085327149,9.10097602192707
10.8976695000019,1.84970352172852,2.49471221923828,8.03663772583008,8.61583066867885
10.9076925000118,1.48730712890625,2.61146942138672,7.53263580322266,8.11002202084095
10.9177155000216,1.12176727294922,2.80366973876953,6.88912399291992,7.5218983779746
10.9277395000099,0.766855316162109,2.99302597045898,6.28827346801758,7.00632962001802
10.9377625000197,0.423020324707031,3.07789947509766,5.87827606201172,6.64879995451372
10.9477855000005,0.190404052734375,3.19630325317383,5.59027496337891,6.44234292441254
10.9578095000179,0.120200042724609,3.35946395874023,5.32607437133789,6.29821517172666
10.9678324999986,0.203127593994141,3.50211730957031,5.24763748168945,6.31219340710231
10.9778555000084,0.291893005371094,3.64387252807617,5.30317199707031,6.44101247925849
10.9878785000183,0.334404602050781,3.75359436035156,5.40930130004883,6.59255926136775
10.9979025000066,0.377215576171875,3.78966934204102,5.56303161621094,6.74175096513322
11.0079255000164,0.443677368164063,3.7986506652832,5.86375625610352,7.00073095575531
11.0179484999971,0.569116516113281,3.83472564697266,6.2080403137207,7.31906954012901
11.0279725000146,0.732426910400391,3.83083374023438,6.44170440673828,7.53042442284551
11.0379954999953,0.894839172363281,3.83068405151367,6.80499893188477,7.86020915178914
11.0480223750055,1.04333038330078,3.90971969604492,7.0459977722168,8.12530190186458
11.0580453750154,1.13164672851563,4.02078872680664,7.0938981628418,8.23229964521128
11.0680693750037,1.12491073608398,4.1528141784668,7.37127136230469,8.53504137434407
11.0780923750135,0.966390380859375,4.44081527709961,7.68516860961914,8.92841347899022
11.0881153750233,0.784668273925781,4.80306198120117,7.8888949584961,9.26929190184185
11.0981383750041,0.58483383178711,5.01142868041992,8.15549057006836,9.59001952387022
11.1081623750215,0.427810363769531,5.10782821655273,8.40936264038086,9.84836589564961
11.1181853750022,0.442479858398438,5.24928405761719,8.75649078369141,10.2189482035831
11.128208375012,0.474064178466797,5.47396682739258,9.22681274414063,10.7388604185051
11.1382323750004,0.529748382568359,5.67933975219727,9.75311828613281,11.2986215828755
11.1482553750102,0.652193756103516,5.68427947998047,10.0658180236816,11.5783022238971
11.15827837502,0.820294189453125,5.42591674804688,10.3385508728027,11.7046610059205
11.1683013750007,0.980461120605469,5.14629821777344,10.7844735717773,11.9896021441765
11.1783253750182,1.03883972167969,5.0198112487793,11.2251571655273,12.3402530902531
11.1883483749989,1.06518493652344,5.01412307739258,11.3380224609375,12.4429418751741
11.1983713750087,1.03315155029297,4.95110412597656,11.2018057250977,12.2906991540337
11.2083943750185,0.859063568115234,4.96756988525391,10.6358326721191,11.7701179861657
11.2184183750069,0.539328460693359,5.17593658447266,9.99441650390625,11.2680768531524
11.2284413750167,0.192050628662109,5.27637771606445,9.79997085571289,11.1317776666341
11.2384643749974,-0.037122802734375,5.22308853149414,9.9249609375,11.2154750911947
11.2484883750149,-0.156574401855469,5.09106307983399,10.4142933654785,11.5931421594154
11.2585113749956,-0.0705033874511719,4.76728637695313,11.5278277587891,12.4748868918252
11.2685343750054,0.204923858642578,4.26148818969727,13.2675100708008,13.9366100202872
11.2785573750152,0.456849975585938,3.91570724487305,14.478042755127,15.005172346462
11.2885813750036,0.815653839111328,3.71736968994141,14.5597727966309,15.0489571893359
11.2986043750134,1.08359664916992,3.52741470336914,13.8259986877441,14.3099642173256
11.3086273750232,1.30887817382813,3.27533889770508,12.1563706970215,12.6577389565493
11.3186513750115,1.49973129272461,2.99631912231445,10.867850189209,11.3726553613575
11.3286743750214,1.34719848632813,2.93749145507813,10.1524877929688,10.6544266948814
11.3386973750021,1.03045715332031,3.05799087524414,9.6089680480957,10.1363414054199
11.3487203750119,0.750988311767578,3.14510971069336,9.08939849853516,9.64742782309784
11.3587443750002,0.582289123535156,3.15783325195313,8.9142626953125,9.47496970293669
11.3687673750101,0.603095855712891,3.10634033203125,8.78523101806641,9.3377384258919
11.3787903750199,0.913101196289063,2.98808624267578,8.6318000793457,9.17989029336001
11.3888133750006,1.28732299804688,2.92761199951172,8.39604034423828,8.98452035353375
11.398837375018,1.46455444335938,2.84932479858398,8.3681982421875,8.96048622262985
11.4088603749988,1.38192626953125,2.75741592407227,8.31835189819336,8.87175524318187
11.4188833750086,1.17056579589844,2.69918701171875,8.06328231811524,8.58326025169856
11.4289073749969,0.891396331787109,2.60248809814453,7.71076538085938,8.18678413542014
11.4389303750067,0.552201690673828,2.51596801757813,7.2375993347168,7.68230863104003
11.4489533750166,0.281265106201172,2.49830474853516,6.76188858032227,7.21413708278491
11.4589763749973,0.0691561889648438,2.62718673706055,6.38152954101563,6.90150795208656
11.4690003750147,-0.0700543212890625,2.87357437133789,6.02946166992188,6.67957673094623
11.4790233749955,-0.204175415039063,3.08268951416016,5.7478971862793,6.52556390703952
11.4890463750053,-0.226329345703125,3.14436126708984,5.60838729858399,6.43368019422938
11.4990693750151,-0.127983856201172,3.16995803833008,5.57201293945313,6.41189067511718
11.5090933750034,-0.0859213256835938,3.2618669128418,5.58009613037109,6.46410326769938
11.5191163750133,-0.141605529785156,3.35706893920898,5.72843765258789,6.64115667096133
11.5291393750231,-0.211659851074219,3.47367645263672,5.78516967773438,6.75125293485119
11.5391623750038,-0.254620513916016,3.57741073608398,5.93994781494141,6.93870875775767
11.5491863750212,-0.185464324951172,3.70494552612305,6.0499690246582,7.09669948403429
11.559209375002,-0.0926573181152344,3.85164047241211,6.16373245239258,7.26879064576775
11.5692323750118,-0.0410147094726563,3.99399444580078,6.45263168334961,7.58881607897094
11.5792563750001,-0.0431103515625,4.17631530761719,6.80514862060547,7.98457987621002
11.5892793750099,-0.0399668884277344,4.46401702880859,7.1133576965332,8.39814879032825
11.5993023750198,-0.0718505859375,4.72821762084961,7.54251525878906,8.90228851508859
11.6093253750005,-0.06945556640625,4.90440124511719,8.00011367797852,9.38401803650178
11.6193493750179,0.0255967712402344,5.0440608215332,8.42912155151367,9.82310006546897
11.6293723749986,0.0746946716308594,5.29074783325195,8.73852813720703,10.2156480917164
11.6393953750085,0.0908610534667969,5.52815414428711,9.08311157226563,10.6335158723849
11.6494183750183,0.0968486022949219,5.66586776733398,9.46751220703125,11.0338218491585
11.6594423750066,0.0853225708007813,5.72619232177734,9.80565902709961,11.355505598731
11.6694653750164,0.0290396118164063,5.79759384155274,10.0529447937012,11.6049401840711
11.6794883749972,-0.0399668884277344,5.87767730712891,10.1056352233887,11.6907036207023
11.689511375007,-0.113164672851563,5.83606384277344,10.2420016479492,11.7885981005675
11.6995353749953,-0.164358215332031,5.86195999145508,10.4981190490723,12.0249778433418
11.7095583750051,-0.231718139648438,6.00057174682617,10.5829925537109,12.1680025467187
11.719581375015,-0.251027984619141,6.03245544433594,10.635383605957,12.2296736744207
11.7296053750033,-0.189655609130859,6.06763229370117,10.562784576416,12.1829614178742
11.7396283750131,-0.120499420166016,6.22076385498047,10.1982925415039,11.9464469116046
11.749651375023,0.0133222961425781,6.26222763061524,9.88469467163086,11.7014042376367
11.7596743750037,0.129031677246094,6.03949081420898,9.96986755371094,11.6572019587543
11.7696983750211,0.325273590087891,5.61138107299805,10.3753742980957,11.8000759438401
11.7797213750018,0.614921264648438,5.10468475341797,11.0581045532227,12.1949830218618
11.7897443750117,0.893791351318359,4.70606369018555,11.9462077331543,12.8708110715467
11.7997673750215,1.15649505615234,4.54619613647461,12.5052951049805,13.3561890443663
11.8097913750098,1.39045852661133,4.36881500244141,12.7801235961914,13.5776094572539
11.8198143750196,1.61529098510742,4.05746246337891,12.7639572143555,13.4903954863523
11.8298373750004,1.96092224121094,3.67036743164063,12.2442379760742,12.9320600344285
11.8398603750102,2.39172637939453,3.26590850830078,11.4077774047852,12.1047056459713
11.8498843749985,2.70861740112305,2.97266830444336,10.7467520141602,11.4745825164911
11.8599073750083,2.68571502685547,2.93853927612305,10.2866088867188,11.0300680265861
11.8699303750182,2.53048782348633,2.97685958862305,9.78066101074219,10.5321598659649
11.8799543750065,2.3709196472168,2.90006927490234,9.27441375732422,10.0023203465414
11.8899773750163,2.3137385559082,2.73960296630859,8.92264526367188,9.61625753707903
11.900000374997,2.27347229003906,2.65233444213867,8.55321350097656,9.23910252350401
11.9100233750069,2.24024139404297,2.58901611328125,8.29904205322266,8.97751552154446
11.9200473750243,2.21823715209961,2.63257553100586,8.19351150512695,8.88733147654871
11.930070375005,2.09369613647461,2.78046798706055,7.97167282104492,8.69839831835399
11.9400933750148,1.8727555847168,2.93330017089844,7.72962615966797,8.47694425727244
11.9501163749956,1.59957366943359,3.08807830810547,7.41602828979492,8.19099134146627
11.960140375013,1.31321914672852,3.23357574462891,7.00618057250977,7.8273317828108
11.9701633750228,1.00156723022461,3.35138076782227,6.67222503662109,7.53349035354145
11.9801863750035,0.739312591552734,3.47816711425781,6.39515121459961,7.31725280691653
11.9902093750134,0.571960601806641,3.64551910400391,6.207890625,7.22183179530231
12.0002333750017,0.524209899902344,3.86975280761719,6.12017303466797,7.25991052186552
12.0102563750115,0.485739898681641,4.03755386352539,6.01988159179688,7.26476144338511
12.0202793750213,0.451311492919922,4.09653121948242,6.06538696289063,7.33308728336431
12.0303033750097,0.424517211914063,4.04833145141602,6.29366226196289,7.49529099310969
12.0403263750195,0.382604370117188,3.98486343383789,6.48197067260742,7.61849502795098
12.0503455416765,0.429157562255859,3.89564895629883,6.67432067871094,7.73994919403364
12.0603685416863,0.566721496582031,3.88202728271484,6.74138122558594,7.79984165910521
12.0703925416747,0.673898620605469,3.92274261474609,6.76997177124023,7.85331565364519
12.0804155416845,0.881217498779297,3.9471418762207,7.00827621459961,8.09150225676868
12.0904385416652,1.11488159179688,4.10311752319336,7.01770660400391,8.20528734126624
12.100461541675,1.2308903503418,4.33288970947266,7.01291656494141,8.33486790752248
12.1104855416634,1.26801315307617,4.55173461914063,7.12712905883789,8.55114694183119
12.1205085416732,1.15799194335938,4.78345275878906,7.30810272216797,8.81083032603686
12.130531541683,0.905018005371094,4.93284210205078,7.81210464477539,9.28337049647012
12.1405545416637,0.707877960205078,5.09255996704102,8.39169937133789,9.84153832301463
12.1505785416812,0.693208465576172,5.33281036376953,8.75693984985352,10.2763514871099
12.160601541691,0.741108856201172,5.51004180908203,9.13295791625977,10.6920869513273
12.1706245416717,0.751587066650391,5.61108169555664,9.52005294799805,11.0761242790813
12.1806475416815,0.747994537353516,5.70867874145508,9.89502319335938,11.4481436398296
12.1906715416699,0.8286767578125,5.68427947998047,10.2388581848145,11.7401854884924
12.2006945416797,1.01369201660156,5.48579223632813,10.4786595153809,11.8711327683571
12.2107175416895,1.15290252685547,5.17848129272461,10.8111181640625,12.0426794648388
12.2207405416702,1.19960540771484,4.9096403503418,11.1542047119141,12.24581170275
12.2307645416877,1.14422058105469,4.74168960571289,11.4375654602051,12.4342577064942
12.2407875416684,0.943488006591797,4.70097427368164,11.2916189575195,12.2674360573925
12.2508105416782,0.605640563964844,4.7231282043457,10.8852140808105,11.8811879083062
12.2608345416666,0.279019775390625,4.61520263671875,10.6015539550781,11.5659367833076
12.2708575416764,0.143701171875,4.31612457275391,10.4087548828125,11.2690620534631
12.2808805416862,0.102237396240234,4.03650604248047,10.5326971435547,11.2801393002931
12.2909035416669,0.0594264221191406,3.79131591796875,11.4796279907227,12.0896429515049
12.3009275416844,0.153580627441406,3.41305252075195,13.1979048156738,13.6329456113535
12.3109505416651,0.474363555908203,3.21007461547852,14.3931692504883,14.7544203848648
12.3209735416749,0.971180419921875,3.19854858398438,14.6350662231445,15.0119641555652
12.3309965416847,1.25289459228516,3.21321807861328,14.3689196777344,14.7770216209251
12.3410205416731,1.49134872436523,3.11397445678711,13.1077922058105,13.5548948518938
12.3510435416829,1.63235549926758,2.82492553710938,11.5315699768066,11.9842352653889
12.3610665416636,1.37249588012695,2.59186019897461,10.6615791320801,11.0576106741737
12.3710895416734,0.834215240478516,2.77537857055664,10.5823937988281,10.9720417330061
12.3811135416909,0.458496551513672,3.08029449462891,10.4068089294434,10.8627853405714
12.3911365416716,0.249830474853516,3.16022827148438,10.2409538269043,10.7203821423884
12.4011595416814,0.302520904541016,3.08089324951172,10.0589323425293,10.5245209859714
12.4111825416621,0.590671691894531,2.96219009399414,9.75790832519531,10.2147069504455
12.4212065416796,1.01653610229492,2.85246826171875,9.41003173828125,9.88527279071459
12.4312295416894,1.34255813598633,2.80576538085938,9.25330764770508,9.76209424990403
12.4412525416701,1.46066253662109,2.75981094360352,8.97578475952149,9.50341010056813
12.4512755416799,1.38297409057617,2.60533218383789,8.63135101318359,9.121435930605
12.4612995416683,1.19167190551758,2.45908630371094,8.3249382019043,8.76195089263939
12.4713225416781,0.933309173583985,2.43169326782227,7.90446258544922,8.32254329679544
12.4813455416879,0.653091888427734,2.52629653930664,7.39821533203125,7.84488963073064
12.4913685416686,0.405656433105469,2.73630981445313,6.92699523925781,7.45890150002618
12.5013925416861,0.262554016113281,2.92865982055664,6.44409942626953,7.08324786884995
12.5114155416668,0.15567626953125,3.07131317138672,6.02631820678711,6.76562715696649
12.5214385416766,0.0937051391601563,3.21606216430664,5.55899002075195,6.42294376034926
12.5314615416864,0.03592529296875,3.25528060913086,5.27622802734375,6.19973585464623
12.5414855416748,0.0324824523925781,3.28551773071289,5.18910919189453,6.14186747446952
12.5515085416846,0.0115260314941406,3.33102310180664,5.24254806518555,6.21129277767135
12.5615315416653,0.009580078125,3.40751403808594,5.36783752441406,6.35805971866868
12.5715555416828,0.0544866943359375,3.52352279663086,5.60644134521484,6.62196090713102
12.5815785416635,0.096998291015625,3.72500381469727,5.90836349487305,6.98525742371157
12.5916015416733,0.182620239257813,3.99264724731445,6.21298004150391,7.38753701780236
12.6016245416831,0.276624755859375,4.16314270019531,6.46520553588867,7.69461896516191
12.6116485416715,0.329913940429688,4.18933822631836,6.8160758972168,8.00738962578954
12.6216715416813,0.260308685302734,4.28843215942383,7.23744964599609,8.41659600883597
12.631694541662,0.138611755371094,4.42255325317383,7.73022491455078,8.90699543759999
12.6417175416718,0.0910107421875,4.54784271240234,8.27389434814453,9.44184748744665
12.6517415416893,0.101638641357422,4.76773544311523,8.71143447875977,9.93130013375281
12.66176454167,0.176333312988281,5.03148696899414,9.04419250488281,10.3510565944644
12.6717875416798,0.332458648681641,5.1492919921875,9.37769897460938,10.7035963503992
12.6818105416896,0.482746124267578,5.17219436645508,9.75162139892578,11.0489256623833
12.691834541678,0.621507568359375,5.19569549560547,10.1024917602539,11.3772520015415
12.7018575416878,0.705782318115234,5.20542526245117,10.5138363647461,11.7530989933798
12.7118805416685,0.709823913574219,5.2498828125,10.8955426025391,12.1151957531444
12.7219035416783,0.57719970703125,5.29568756103516,11.1893815612793,12.392728753983
12.7319275416667,0.344284057617188,5.30945892333984,11.4357691955566,12.6129180868269
12.7419505416765,0.121098175048828,5.32951721191406,11.6182397460938,12.7828757827729
12.7519735416863,-0.0595761108398438,5.3838542175293,11.601474609375,12.7899823557565
12.761996541667,-0.0708027648925781,5.41394165039063,11.4070289611816,12.6268003447662
12.7720205416845,0.068258056640625,5.56392974853516,10.9135052490234,12.2501661306855
12.7820435416652,0.274379425048828,5.78412185668945,10.134225769043,11.6719270756742
12.792066541675,0.565224609375,5.69505706787109,9.60432769775391,11.1801728247462
12.8020895416848,0.847387847900391,5.37726791381836,9.5511882019043,10.9935559510991
12.8121135416732,1.20484451293945,4.97834747314453,9.70057754516602,10.9698130600983
12.822136541683,1.6188835144043,4.71070404052734,10.0420175170898,11.2095330948345
12.8321595416637,1.90748336791992,4.68660415649414,10.4690794372559,11.6277416372283
12.8421825416735,1.98861465454102,4.65861236572266,10.8777296447754,11.9992607956967
12.852206541691,1.99969161987305,4.47674057006836,11.0148445129395,12.056814353324
12.8622295416717,2.07708068847656,4.07063507080078,10.6299948120117,11.5707010923916
12.8722525416815,2.10537185668945,3.60719879150391,9.95444961547852,10.7951628483996
12.8822755416622,2.12228668212891,3.36305648803711,9.21274200439453,10.0343841336878
12.8922995416797,1.98666870117188,3.05364990234375,9.0434440612793,9.74964157001619
12.9023225416895,1.79791122436523,2.73885452270508,9.03087020874023,9.60679059802765
12.9123455416702,1.74941207885742,2.59230926513672,8.9623127746582,9.49228951405126
12.92236854168,1.85479293823242,2.57374786376953,8.99045425415039,9.53376644385345
12.9323925416684,2.05717208862305,2.58901611328125,8.94390106201172,9.53563462198998
12.9424155416782,2.23934326171875,2.61655883789063,8.81950973510742,9.46809328025465
12.952438541688,2.33619186401367,2.74768615722656,8.69781280517578,9.41591839588566
12.9624615416687,2.28784240722656,2.835703125,8.57237365722656,9.31455985071495
12.9724855416862,2.12064010620117,2.83944534301758,8.24575286865234,8.9750768624509
12.9825085416669,1.85269729614258,2.81025604248047,7.91254577636719,8.59874449896834
12.9925315416767,1.53655471801758,2.80352005004883,7.70896911621094,8.345593442481
13.0025545416866,1.19481536865234,2.91473876953125,7.36543350219727,8.01079874513561
13.0125785416749,0.820144500732422,2.98763717651367,6.99989364624024,7.65487582911981
13.0226015416847,0.490080871582031,3.07954605102539,6.64992141723633,7.34474220081924
13.0326245416654,0.362396392822266,3.23552169799805,6.45038635253906,7.22546994324722
13.0426475416753,0.257464599609375,3.29210403442383,6.45787078857422,7.25316014682165
13.0526720000198,0.190703430175781,3.400927734375,6.60905639648438,7.43520703845111
13.0626950000005,0.1916015625,3.63384338378906,6.58181304931641,7.52075740286919
13.0727180000104,0.220042419433594,3.8414616394043,6.20459747314453,7.30084077330251
13.0827410000202,0.284258880615234,3.99159942626953,5.91405166625977,7.14070558153701
13.0927650000085,0.379610595703125,3.98171997070313,5.91135726928711,7.1373904821454
13.1027880000183,0.547860717773438,3.86810623168945,6.12436431884766,7.26431245856677
13.1128109999991,0.635727996826172,3.90567810058594,6.34590362548828,7.47856699744881
13.1228340000089,0.619860992431641,3.99698822021484,6.78928161621094,7.90281515326623
13.1328579999972,0.612376556396484,4.03695510864258,7.47335906982422,8.51604998708576
13.142881000007,0.556392974853516,4.32884811401367,7.76809616088867,8.91020858911167
13.1529040000169,0.636177062988281,4.66519866943359,7.96358963012695,9.25135447801147
13.1629269999976,0.787063293457031,4.94436813354492,8.39080123901367,9.77096670245863
13.172951000015,0.874631195068359,5.05528747558594,8.71098541259766,10.1095092881253
13.1829739999957,0.924028472900391,5.01711685180664,8.85079467773438,10.2157650986514
13.1929970000056,0.880019989013672,4.97849716186524,9.05541915893555,10.3711371274215
13.2030200000154,0.908161468505859,5.09151214599609,9.49176177978516,10.8093383178571
13.2130440000037,1.02641555786133,5.31948806762695,10.0581838989258,11.4244275805685
13.2230670000135,1.20304824829102,5.49656982421875,10.7238496398926,12.1103491287102
13.2330900000234,1.43581420898438,5.48788787841797,11.4556777954102,12.7832323596601
13.2431130000041,1.58879608154297,5.24209899902344,11.9140246582031,13.1128890203708
13.2531370000215,1.55436767578125,4.82147369384766,12.0268899536133,13.0502394387345
13.2631600000022,1.34495315551758,4.39471115112305,12.3095022583008,13.1394912739974
13.2731830000121,1.05994583129883,4.02318374633789,12.3725212097168,13.0533050874856
13.2832060000219,0.690663757324219,3.86166961669922,11.7017660522461,12.3418328215755
13.2932300000102,0.271235961914063,4.00372421264648,10.9367070007324,11.6496753833674
13.3032530000201,-0.116158447265625,4.15955017089844,10.045460357666,10.8732067122138
13.3132760000008,-0.460442504882813,4.41042846679688,9.51571197509766,10.4982217996217
13.3232990000106,-0.590372314453125,4.84093322753906,10.1958975219727,11.3021900648384
13.3333229999989,-0.638572082519531,5.32068557739258,11.1962672424316,12.4126495754128
13.3433460000088,-0.311053161621094,5.43280242919922,12.6780358886719,13.7965463177753
13.3533690000186,0.346978454589844,4.96412704467774,13.9975419616699,14.855777742426
13.3633919999993,1.10515182495117,4.3254052734375,14.6733865356445,15.337495354852
13.3734150000091,1.7530046081543,3.93980712890625,14.2328526306152,14.8717584492891
13.3834389999975,2.3807991027832,3.24046142578125,13.0148355102539,13.6218478180736
13.3934620000073,2.84573226928711,2.16704360961914,11.6722773742676,12.2080436293573
13.4034850000171,2.91518783569336,1.24765548706055,10.509345703125,10.9773089343226
13.4135079999978,2.55339019775391,0.998872833251953,9.57154586791992,9.95650735653268
13.4235320000153,1.85194885253906,1.56394775390625,8.88986343383789,9.21440822851132
13.433554999996,1.16203353881836,2.28739334106445,8.5355502319336,8.91280584350104
13.4435780000058,0.658929748535156,2.83690063476563,8.3155078125,8.81078111206871
13.4536010000156,0.466130676269531,2.89902145385742,8.19455932617188,8.70473467415495
13.463625000004,0.578696594238281,2.54904922485352,8.32643508911133,8.72708788726765
13.4736480000138,0.881067810058594,2.07453598022461,8.5886897277832,8.87950287230635
13.4836710000236,1.23014190673828,1.88353317260742,8.7177214050293,9.00331121414406
13.4936940000043,1.39914047241211,2.13186676025391,8.64452362060547,9.01278195521355
13.5037180000218,1.3410612487793,2.4858805847168,8.45322143554688,8.91263149652439
13.5137410000025,1.17415832519531,2.61925323486328,7.95086608886719,8.45313000278982
13.5237640000123,0.824036407470703,2.63811401367188,7.31947906494141,7.82390281969841
13.5337870000221,0.374970245361328,2.65697479248047,6.79362258911133,7.30434292842735
13.5438110000105,-0.0678089904785156,2.77178604125977,6.37404510498047,6.95096014360877
13.5538340000203,-0.319585418701172,2.8789631652832,5.82348999023438,6.50412172497285
13.563857000001,-0.333207092285156,2.91848098754883,5.40600814819336,6.15251837375283
13.5738800000108,-0.230370941162109,3.06203247070313,5.16785339355469,6.01130787095844
13.5839039999992,-0.0685574340820313,3.2573762512207,5.10483444213867,6.05595036682351
13.593927000009,0.133971405029297,3.35332672119141,5.18312164306641,6.17474682908095
13.6039500000188,0.312400360107422,3.39853271484375,5.31125518798828,6.31324403700593
13.6139729999995,0.345930633544922,3.50855392456055,5.75553131103516,6.74950067168528
13.623997000017,0.246237945556641,3.75149871826172,6.23842712402344,7.28370432820434
13.6340199999977,0.145048370361328,3.9998323059082,6.57971740722656,7.70145302291014
13.6440430000075,-0.005987548828125,4.03635635375977,7.03312454223633,8.10907203642222
13.6540660000173,-0.0868194580078125,3.97393615722656,7.35989501953125,8.36467338863403
13.6640889999981,-0.0431103515625,4.00806518554688,7.67873199462891,8.66194955419058
13.6741130000155,-0.0188607788085938,4.17137557983399,8.056845703125,9.0726783609349
13.6841359999962,0.0699046325683594,4.3063948059082,8.36685104370117,9.41031982822534
13.694159000006,0.308358764648438,4.43752212524414,8.71517669677735,9.7847326277123
13.7041820000159,0.484841766357422,4.68286193847656,8.82385070800781,10.0012303638326
13.7142060000042,0.432001647949219,4.98208969116211,8.98880767822266,10.2862289781382
13.724229000014,0.315244445800781,5.18237319946289,9.29926208496094,10.6504763444604
13.7342520000238,0.189655609130859,5.31275207519531,9.42994033813477,10.8252057090546
13.7442750000046,-0.0193098449707031,5.56422912597656,9.59175384521485,11.0888574913592
13.754299000022,-0.143551483154297,5.79669570922852,9.80281494140625,11.389357705734
13.7643220000027,-0.256416778564453,5.86704940795898,9.91298583984375,11.5219489054892
13.7743450000125,-0.348026275634766,5.77768524169922,10.1952987670898,11.723774391846
13.7843680000224,-0.322878570556641,5.66212554931641,10.3942350769043,11.8407786543577
13.7943920000107,-0.0636177062988281,5.53204605102539,10.5837409973145,11.9424936349765
13.8044150000205,0.159717864990234,5.42561737060547,10.8605154418945,12.1414014558552
13.8144380000012,0.331261138916016,5.36394561767578,11.1287576293945,12.3584340798236
13.8244610000111,0.634829864501953,5.36035308837891,11.0506201171875,12.2984795468117
13.8344849999994,0.933458862304688,5.41828262329102,10.4910836791992,11.8444910738044
13.8445080000092,1.07611221313477,5.23012390136719,10.2872076416016,11.5904639501763
13.8545310000191,1.22475311279297,4.82386871337891,10.7349266052246,11.8325136285901
13.8645539999998,1.50482070922852,4.38213729858398,11.1453730773926,12.0700850744654
13.8745770000096,1.7913249206543,3.98186965942383,11.8068475341797,12.5883191749877
13.8846009999979,2.07453598022461,3.65315322875977,12.5481060791016,13.2326941405909
13.8946240000078,2.23365509033203,3.43625427246094,13.050611114502,13.6790171046583
13.9046470000176,2.37720657348633,3.20752990722656,13.3062794494629,13.8923155732217
13.9146699999983,2.58033416748047,2.86294647216797,12.5820854187012,13.1591588029729
13.9246940000157,2.94138336181641,2.36418365478516,11.5915951538086,12.1904133910431
13.9347169999965,3.24974212646484,1.96466445922852,10.8715924072266,11.5157393073455
13.9447400000063,3.29809158325195,1.88652694702148,10.214907989502,10.898657589233
13.9547630000161,3.08703048706055,2.03217407226563,9.75132202148438,10.4282198794768
13.9647870000044,2.79079650878906,2.14279403686523,9.32246383666992,9.96435865592527
13.9748100000143,2.52524871826172,2.25221649169922,8.80723526000977,9.43486900490535
13.9848330000241,2.28335174560547,2.41567657470703,8.32269287109375,8.96194204033381
13.9948560000048,2.10716812133789,2.49740661621094,8.04651718139649,8.68467823519016
